pos,corr_resp,trials.thisRepN,trials.thisTrialN,trials.thisN,trials.thisIndex,trials_2.thisRepN,trials_2.thisTrialN,trials_2.thisN,trials_2.thisIndex,thisRow.t,notes,trial.started,fixation.started,line1.started,line2.started,line3.started,line4.started,fixation.stopped,probe.started,key_resp.started,trial.stopped,key_resp.keys,key_resp.corr,key_resp.rt,key_resp.duration,random_trial.started,Fixation_2.started,Line1.started,Line2.started,Line3.started,Line4.started,Fixation_2.stopped,Probe_2.started,Key_Resp.started,random_trial.stopped,Key_Resp.keys,Key_Resp.corr,Key_Resp.rt,Key_Resp.duration,participant,session,date,expName,psychopyVersion,frameRate,expStart,
-50,x,0,0,0,0,,,,,0.02379010000731796,,0.01302930002566427,0.02379010000731796,1.0089689000160433,1.0089689000160433,1.0089689000160433,1.0089689000160433,1.0259091000189073,2.0081151999766007,2.0081151999766007,3.350576800003182,x,1,1.3148518999805674,None,,,,,,,,,,,,,,,066450,001,2024-10-14_22h17.51.370,motor sequence,2024.1.5,None,2024-10-14 22h17.54.250816 +0530,
150,v,0,1,1,1,,,,,3.3735324000008404,,3.3551027000066824,3.3735324000008404,4.3587356000207365,4.3587356000207365,4.3587356000207365,4.3587356000207365,4.3753883999888785,5.358135999995284,5.358135999995284,6.810467700008303,v,1,1.4404074999620207,None,,,,,,,,,,,,,,,066450,001,2024-10-14_22h17.51.370,motor sequence,2024.1.5,None,2024-10-14 22h17.54.250816 +0530,
50,c,0,2,2,2,,,,,6.825362499977928,,6.812530600000173,6.825362499977928,7.825764200009871,7.825764200009871,7.825764200009871,7.825764200009871,7.825764200009871,8.825588600011542,8.825588600011542,11.045793899975251,c,1,2.2042700000456534,None,,,,,,,,,,,,,,,066450,001,2024-10-14_22h17.51.370,motor sequence,2024.1.5,None,2024-10-14 22h17.54.250816 +0530,
-150,z,0,3,3,3,,,,,11.059656500001438,,11.047877600009087,11.059656500001438,12.059859399974812,12.059859399974812,12.059859399974812,12.059859399974812,12.059859399974812,13.060098099987954,13.060098099987954,14.07805399998324,z,1,1.0124269000370987,None,,,,,,,,,,,,,,,066450,001,2024-10-14_22h17.51.370,motor sequence,2024.1.5,None,2024-10-14 22h17.54.250816 +0530,
-50,x,1,0,4,0,,,,,14.093410399975255,,14.079825000022538,14.093410399975255,15.094665199983865,15.094665199983865,15.094665199983865,15.094665199983865,15.111789199989289,16.091686700005084,16.091686700005084,16.94399409997277,x,1,0.8477023000014015,None,,,,,,,,,,,,,,,066450,001,2024-10-14_22h17.51.370,motor sequence,2024.1.5,None,2024-10-14 22h17.54.250816 +0530,
150,v,1,1,5,1,,,,,16.95874009997351,,16.946058599976823,16.95874009997351,17.95866850001039,17.95866850001039,17.95866850001039,17.95866850001039,17.95866850001039,18.958116299996618,18.958116299996618,20.37648660002742,v,1,1.406967299990356,None,,,,,,,,,,,,,,,066450,001,2024-10-14_22h17.51.370,motor sequence,2024.1.5,None,2024-10-14 22h17.54.250816 +0530,
50,c,1,2,6,2,,,,,20.391869199986104,,20.378491599985864,20.391869199986104,21.392232800018974,21.392232800018974,21.392232800018974,21.392232800018974,21.392232800018974,22.391410499985795,22.391410499985795,23.893728800001554,c,1,1.490202600019984,None,,,,,,,,,,,,,,,066450,001,2024-10-14_22h17.51.370,motor sequence,2024.1.5,None,2024-10-14 22h17.54.250816 +0530,
-150,z,1,3,7,3,,,,,23.9085907000117,,23.89555770001607,23.9085907000117,24.908684300025925,24.908684300025925,24.908684300025925,24.908684300025925,24.908684300025925,25.90836090000812,25.90836090000812,27.11049799999455,z,1,1.1948410999611951,None,,,,,,,,,,,,,,,066450,001,2024-10-14_22h17.51.370,motor sequence,2024.1.5,None,2024-10-14 22h17.54.250816 +0530,
-50,x,2,0,8,0,,,,,27.12478449998889,,27.11243179999292,27.12478449998889,28.12567310000304,28.12567310000304,28.12567310000304,28.12567310000304,28.12567310000304,29.125298200000543,29.125298200000543,30.910139599989634,x,1,1.7803805999574251,None,,,,,,,,,,,,,,,066450,001,2024-10-14_22h17.51.370,motor sequence,2024.1.5,None,2024-10-14 22h17.54.250816 +0530,
150,v,2,1,9,1,,,,,30.924790600023698,,30.911849799973425,30.924790600023698,31.926125700003468,31.926125700003468,31.926125700003468,31.926125700003468,31.926125700003468,32.92495740001323,32.92495740001323,34.51105789997382,v,1,1.583496399980504,None,,,,,,,,,,,,,,,066450,001,2024-10-14_22h17.51.370,motor sequence,2024.1.5,None,2024-10-14 22h17.54.250816 +0530,
50,c,2,2,10,2,,,,,34.52487399999518,,34.51310560002457,34.52487399999518,35.525827699981164,35.525827699981164,35.525827699981164,35.525827699981164,35.525827699981164,36.54180030000862,36.54180030000862,39.07741119997809,c,1,2.5270146999973804,None,,,,,,,,,,,,,,,066450,001,2024-10-14_22h17.51.370,motor sequence,2024.1.5,None,2024-10-14 22h17.54.250816 +0530,
-150,z,2,3,11,3,,,,,39.09190320002381,,39.07916979998117,39.09190320002381,40.09204359998694,40.09204359998694,40.09204359998694,40.09204359998694,40.09204359998694,41.091657800017856,41.091657800017856,42.26025649998337,z,1,1.1514919999754056,None,,,,,,,,,,,,,,,066450,001,2024-10-14_22h17.51.370,motor sequence,2024.1.5,None,2024-10-14 22h17.54.250816 +0530,
-50,x,3,0,12,0,,,,,42.27496720000636,,42.26221610000357,42.27496720000636,43.275327900017146,43.275327900017146,43.275327900017146,43.275327900017146,43.275327900017146,44.27561579999747,44.27561579999747,45.30743639997672,x,1,1.0026746000512503,None,,,,,,,,,,,,,,,066450,001,2024-10-14_22h17.51.370,motor sequence,2024.1.5,None,2024-10-14 22h17.54.250816 +0530,
150,v,3,1,13,1,,,,,45.32425260002492,,45.30858820001595,45.32425260002492,46.309304199996404,46.309304199996404,46.309304199996404,46.309304199996404,46.325621200026944,47.30870509997476,47.30870509997476,48.660905199998524,v,1,1.3478620999958366,None,,,,,,,,,,,,,,,066450,001,2024-10-14_22h17.51.370,motor sequence,2024.1.5,None,2024-10-14 22h17.54.250816 +0530,
50,c,3,2,14,2,,,,,48.67499189998489,,48.66278830001829,48.67499189998489,49.67597779998323,49.67597779998323,49.67597779998323,49.67597779998323,49.67597779998323,50.674996500019915,50.674996500019915,51.81057939998573,c,1,1.130639599985443,None,,,,,,,,,,,,,,,066450,001,2024-10-14_22h17.51.370,motor sequence,2024.1.5,None,2024-10-14 22h17.54.250816 +0530,
-150,z,3,3,15,3,,,,,51.82512350002071,,51.81250970001565,51.82512350002071,52.826227499987,52.826227499987,52.826227499987,52.826227499987,52.826227499987,53.8249348999816,53.8249348999816,55.343849700002465,z,1,1.502433600020595,None,,,,,,,,,,,,,,,066450,001,2024-10-14_22h17.51.370,motor sequence,2024.1.5,None,2024-10-14 22h17.54.250816 +0530,
-50,x,4,0,16,0,,,,,55.358321900013834,,55.3458034999785,55.358321900013834,56.358428800012916,56.358428800012916,56.358428800012916,56.358428800012916,56.358428800012916,57.359318499977235,57.359318499977235,58.294482600002084,x,1,0.9225699999951757,None,,,,,,,,,,,,,,,066450,001,2024-10-14_22h17.51.370,motor sequence,2024.1.5,None,2024-10-14 22h17.54.250816 +0530,
150,v,4,1,17,1,,,,,58.3090235000127,,58.29560760001186,58.3090235000127,59.309183400007896,59.309183400007896,59.309183400007896,59.309183400007896,59.309183400007896,60.308182000007946,60.308182000007946,62.16071690001991,v,1,1.849488600040786,None,,,,,,,,,,,,,,,066450,001,2024-10-14_22h17.51.370,motor sequence,2024.1.5,None,2024-10-14 22h17.54.250816 +0530,
50,c,4,2,18,2,,,,,62.17486879997887,,62.16307750000851,62.17486879997887,63.1755083000171,63.1755083000171,63.1755083000171,63.1755083000171,63.1755083000171,64.1749157999875,64.1749157999875,66.62837980000768,c,1,2.448019100003876,None,,,,,,,,,,,,,,,066450,001,2024-10-14_22h17.51.370,motor sequence,2024.1.5,None,2024-10-14 22h17.54.250816 +0530,
-150,z,4,3,19,3,,,,,66.64296500000637,,66.63033219997305,66.64296500000637,67.6423907999997,67.6423907999997,67.6423907999997,67.6423907999997,67.6423907999997,68.64158400002634,68.64158400002634,69.91125810000813,z,1,1.2644912999821827,None,,,,,,,,,,,,,,,066450,001,2024-10-14_22h17.51.370,motor sequence,2024.1.5,None,2024-10-14 22h17.54.250816 +0530,
-50,x,5,0,20,0,,,,,69.92622239998309,,69.91298860003008,69.92622239998309,70.92602269997587,70.92602269997587,70.92602269997587,70.92602269997587,70.92602269997587,71.92591099999845,71.92591099999845,73.6267234000261,x,1,1.6838942000176758,None,,,,,,,,,,,,,,,066450,001,2024-10-14_22h17.51.370,motor sequence,2024.1.5,None,2024-10-14 22h17.54.250816 +0530,
150,v,5,1,21,1,,,,,73.64194340002723,,73.62948719999986,73.64194340002723,74.64292060001753,74.64292060001753,74.64292060001753,74.64292060001753,74.64292060001753,75.64209099998698,75.64209099998698,77.87758510001004,v,1,2.2300698999897577,None,,,,,,,,,,,,,,,066450,001,2024-10-14_22h17.51.370,motor sequence,2024.1.5,None,2024-10-14 22h17.54.250816 +0530,
50,c,5,2,22,2,,,,,77.89162409998244,,77.87964689999353,77.89162409998244,78.8930634999997,78.8930634999997,78.8930634999997,78.8930634999997,78.8930634999997,79.89214680000441,79.89214680000441,80.6772551999893,c,1,0.7719367999816313,None,,,,,,,,,,,,,,,066450,001,2024-10-14_22h17.51.370,motor sequence,2024.1.5,None,2024-10-14 22h17.54.250816 +0530,
-150,z,5,3,23,3,,,,,80.69173329998739,,80.67933800001629,80.69173329998739,81.6925888999831,81.6925888999831,81.6925888999831,81.6925888999831,81.6925888999831,82.69206740002846,82.69206740002846,83.69397550000576,z,1,0.9968252000398934,None,,,,,,,,,,,,,,,066450,001,2024-10-14_22h17.51.370,motor sequence,2024.1.5,None,2024-10-14 22h17.54.250816 +0530,
-50,x,6,0,24,0,,,,,83.70893500000238,,83.69571729999734,83.70893500000238,84.70890109997708,84.70890109997708,84.70890109997708,84.70890109997708,84.70890109997708,85.70844379998744,85.70844379998744,87.06058410002152,x,1,1.345458400028292,None,,,,,,,,,,,,,,,066450,001,2024-10-14_22h17.51.370,motor sequence,2024.1.5,None,2024-10-14 22h17.54.250816 +0530,
150,v,6,1,25,1,,,,,87.07504989998415,,87.06274480000138,87.07504989998415,88.07567859999835,88.07567859999835,88.07567859999835,88.07567859999835,88.07567859999835,89.07504490000429,89.07504490000429,90.66026710002916,v,1,1.5741863999865018,None,,,,,,,,,,,,,,,066450,001,2024-10-14_22h17.51.370,motor sequence,2024.1.5,None,2024-10-14 22h17.54.250816 +0530,
50,c,6,2,26,2,,,,,90.67500470002415,,90.6623328999849,90.67500470002415,91.67663669999456,91.67663669999456,91.67663669999456,91.67663669999456,91.67663669999456,92.67535620002309,92.67535620002309,93.39388069999404,c,1,0.7043631999986246,None,,,,,,,,,,,,,,,066450,001,2024-10-14_22h17.51.370,motor sequence,2024.1.5,None,2024-10-14 22h17.54.250816 +0530,
-150,z,6,3,27,3,,,,,93.40835799998604,,93.39594140002737,93.40835799998604,94.40866499999538,94.40866499999538,94.40866499999538,94.40866499999538,94.40866499999538,95.40884669998195,95.40884669998195,96.26092209998751,z,1,0.8446839000098407,None,,,,,,,,,,,,,,,066450,001,2024-10-14_22h17.51.370,motor sequence,2024.1.5,None,2024-10-14 22h17.54.250816 +0530,
-50,x,7,0,28,0,,,,,96.2751173999859,,96.26303329999791,96.2751173999859,97.27631129999645,97.27631129999645,97.27631129999645,97.27631129999645,97.27631129999645,98.27533089998178,98.27533089998178,99.19434500002535,x,1,0.913099599943962,None,,,,,,,,,,,,,,,066450,001,2024-10-14_22h17.51.370,motor sequence,2024.1.5,None,2024-10-14 22h17.54.250816 +0530,
150,v,7,1,29,1,,,,,99.20870150002884,,99.196341199975,99.20870150002884,100.20894330000738,100.20894330000738,100.20894330000738,100.20894330000738,100.20894330000738,101.2092061000294,101.2092061000294,102.29393260000506,v,1,1.0758416999597102,None,,,,,,,,,,,,,,,066450,001,2024-10-14_22h17.51.370,motor sequence,2024.1.5,None,2024-10-14 22h17.54.250816 +0530,
50,c,7,2,30,2,,,,,102.30856460001087,,102.29589040001156,102.30856460001087,103.30976789997658,103.30976789997658,103.30976789997658,103.30976789997658,103.30976789997658,104.30878710001707,104.30878710001707,105.12719899998046,c,1,0.8073050000239164,None,,,,,,,,,,,,,,,066450,001,2024-10-14_22h17.51.370,motor sequence,2024.1.5,None,2024-10-14 22h17.54.250816 +0530,
-150,z,7,3,31,3,,,,,105.14193620003061,,105.12905930000124,105.14193620003061,106.14264510001522,106.14264510001522,106.14264510001522,106.14264510001522,106.14264510001522,107.14199049997842,107.14199049997842,107.99391520000063,z,1,0.8449421999976039,None,,,,,,,,,,,,,,,066450,001,2024-10-14_22h17.51.370,motor sequence,2024.1.5,None,2024-10-14 22h17.54.250816 +0530,
-50,x,8,0,32,0,,,,,108.0086196999764,,107.99605930002872,108.0086196999764,109.00905160000548,109.00905160000548,109.00905160000548,109.00905160000548,109.00905160000548,110.00916690001031,110.00916690001031,110.31022500002291,x,1,0.29396670003188774,None,,,,,,,,,,,,,,,066450,001,2024-10-14_22h17.51.370,motor sequence,2024.1.5,None,2024-10-14 22h17.54.250816 +0530,
150,v,8,1,33,1,,,,,110.32536040002014,,110.31216969998786,110.32536040002014,111.32643399998778,111.32643399998778,111.32643399998778,111.32643399998778,111.32643399998778,112.32501319999574,112.32501319999574,112.5945474000182,v,1,0.26036429998930544,None,,,,,,,,,,,,,,,066450,001,2024-10-14_22h17.51.370,motor sequence,2024.1.5,None,2024-10-14 22h17.54.250816 +0530,
50,c,8,2,34,2,,,,,112.60860789997969,,112.59679859998869,112.60860789997969,113.60946700000204,113.60946700000204,113.60946700000204,113.60946700000204,113.60946700000204,114.60849369998323,114.60849369998323,114.92683359998045,c,1,0.30103129998315126,None,,,,,,,,,,,,,,,066450,001,2024-10-14_22h17.51.370,motor sequence,2024.1.5,None,2024-10-14 22h17.54.250816 +0530,
-150,z,8,3,35,3,,,,,114.94173620000947,,114.92880930000683,114.94173620000947,115.9424514999846,115.9424514999846,115.9424514999846,115.9424514999846,115.9424514999846,116.94186149997404,116.94186149997404,117.24390649999259,z,1,0.285893699969165,None,,,,,,,,,,,,,,,066450,001,2024-10-14_22h17.51.370,motor sequence,2024.1.5,None,2024-10-14 22h17.54.250816 +0530,
-50,x,9,0,36,0,,,,,117.25864890002413,,117.24678159999894,117.25864890002413,118.25936450000154,118.25936450000154,118.25936450000154,118.25936450000154,118.25936450000154,119.25943570001982,119.25943570001982,119.74467210000148,x,1,0.4809248999808915,None,,,,,,,,,,,,,,,066450,001,2024-10-14_22h17.51.370,motor sequence,2024.1.5,None,2024-10-14 22h17.54.250816 +0530,
150,v,9,1,37,1,,,,,119.7588606000063,,119.74645029997919,119.7588606000063,120.75882889999775,120.75882889999775,120.75882889999775,120.75882889999775,120.75882889999775,121.75904500001343,121.75904500001343,122.01028410001891,v,1,0.24130609998246655,None,,,,,,,,,,,,,,,066450,001,2024-10-14_22h17.51.370,motor sequence,2024.1.5,None,2024-10-14 22h17.54.250816 +0530,
50,c,9,2,38,2,,,,,122.0254279000219,,122.01219290000154,122.0254279000219,123.0258363999892,123.0258363999892,123.0258363999892,123.0258363999892,123.0258363999892,124.02613630000269,124.02613630000269,124.34405489999335,c,1,0.30476050003198907,None,,,,,,,,,,,,,,,066450,001,2024-10-14_22h17.51.370,motor sequence,2024.1.5,None,2024-10-14 22h17.54.250816 +0530,
-150,z,9,3,39,3,,,,,124.35894920001738,,124.34610800002702,124.35894920001738,125.35990909999236,125.35990909999236,125.35990909999236,125.35990909999236,125.35990909999236,126.35849539999617,126.35849539999617,126.69377439998789,z,1,0.3250812999904156,None,,,,,,,,,,,,,,,066450,001,2024-10-14_22h17.51.370,motor sequence,2024.1.5,None,2024-10-14 22h17.54.250816 +0530,
-50,x,10,0,40,0,,,,,126.70868049998535,,126.69573420000961,126.70868049998535,127.70924110000487,127.70924110000487,127.70924110000487,127.70924110000487,127.70924110000487,128.70839879999403,128.70839879999403,129.04395740001928,x,1,0.32232310000108555,None,,,,,,,,,,,,,,,066450,001,2024-10-14_22h17.51.370,motor sequence,2024.1.5,None,2024-10-14 22h17.54.250816 +0530,
150,v,10,1,41,1,,,,,129.05898949998664,,129.04586690000724,129.05898949998664,130.0596664000186,130.0596664000186,130.0596664000186,130.0596664000186,130.0596664000186,131.05949740001233,131.05949740001233,131.56047969998326,v,1,0.4919833000167273,None,,,,,,,,,,,,,,,066450,001,2024-10-14_22h17.51.370,motor sequence,2024.1.5,None,2024-10-14 22h17.54.250816 +0530,
50,c,10,2,42,2,,,,,131.57558800000697,,131.56223360000877,131.57558800000697,132.5754826000193,132.5754826000193,132.5754826000193,132.5754826000193,132.5754826000193,133.57529060001252,133.57529060001252,133.84348069998669,c,1,0.25832369999261573,None,,,,,,,,,,,,,,,066450,001,2024-10-14_22h17.51.370,motor sequence,2024.1.5,None,2024-10-14 22h17.54.250816 +0530,
-150,z,10,3,43,3,,,,,133.85865920002107,,133.84536119998666,133.85865920002107,134.85913270001765,134.85913270001765,134.85913270001765,134.85913270001765,134.85913270001765,135.85868439998012,135.85868439998012,136.14455109997652,z,1,0.2816247000009753,None,,,,,,,,,,,,,,,066450,001,2024-10-14_22h17.51.370,motor sequence,2024.1.5,None,2024-10-14 22h17.54.250816 +0530,
-50,x,11,0,44,0,,,,,136.15863399999216,,136.1465929999831,136.15863399999216,137.15901659999508,137.15901659999508,137.15901659999508,137.15901659999508,137.15901659999508,138.15872000000672,138.15872000000672,138.41062310000416,x,1,0.2386440999689512,None,,,,,,,,,,,,,,,066450,001,2024-10-14_22h17.51.370,motor sequence,2024.1.5,None,2024-10-14 22h17.54.250816 +0530,
150,v,11,1,45,1,,,,,138.4253276999807,,138.41277260001516,138.4253276999807,139.42590269999346,139.42590269999346,139.42590269999346,139.42590269999346,139.42590269999346,140.42530370003078,140.42530370003078,141.29144080000697,v,1,0.8359319000155665,None,,,,,,,,,,,,,,,066450,001,2024-10-14_22h17.51.370,motor sequence,2024.1.5,None,2024-10-14 22h17.54.250816 +0530,
50,c,11,2,46,2,,,,,141.30877050000709,,141.293548799993,141.30877050000709,142.29254920000676,142.29254920000676,142.29254920000676,142.29254920000676,142.30949190002866,143.29188869998325,143.29188869998325,143.57827669999097,c,1,0.2839695000438951,None,,,,,,,,,,,,,,,066450,001,2024-10-14_22h17.51.370,motor sequence,2024.1.5,None,2024-10-14 22h17.54.250816 +0530,
-150,z,11,3,47,3,,,,,143.59186039998895,,143.5802067000186,143.59186039998895,144.5923912000144,144.5923912000144,144.5923912000144,144.5923912000144,144.5923912000144,145.5918920999975,145.5918920999975,146.09386319998885,z,1,0.490482900000643,None,,,,,,,,,,,,,,,066450,001,2024-10-14_22h17.51.370,motor sequence,2024.1.5,None,2024-10-14 22h17.54.250816 +0530,
-50,x,12,0,48,0,,,,,146.1086484999978,,146.09589190001134,146.1086484999978,147.10925500001758,147.10925500001758,147.10925500001758,147.10925500001758,147.10925500001758,148.10939479997614,148.10939479997614,149.06096839997917,x,1,0.9474461000063457,None,,,,,,,,,,,,,,,066450,001,2024-10-14_22h17.51.370,motor sequence,2024.1.5,None,2024-10-14 22h17.54.250816 +0530,
150,v,12,1,49,1,,,,,149.07519790000515,,149.06300149997696,149.07519790000515,150.07427819998702,150.07427819998702,150.07427819998702,150.07427819998702,150.09279750002315,151.07521929999348,151.07521929999348,151.79426410002634,v,1,0.7141527000349015,None,,,,,,,,,,,,,,,066450,001,2024-10-14_22h17.51.370,motor sequence,2024.1.5,None,2024-10-14 22h17.54.250816 +0530,
50,c,12,2,50,2,,,,,151.808682199975,,151.7961987000308,151.808682199975,152.80952559999423,152.80952559999423,152.80952559999423,152.80952559999423,152.80952559999423,153.80961719999323,153.80961719999323,154.3273893999867,c,1,0.5112685000058264,None,,,,,,,,,,,,,,,066450,001,2024-10-14_22h17.51.370,motor sequence,2024.1.5,None,2024-10-14 22h17.54.250816 +0530,
-150,z,12,3,51,3,,,,,154.34211219998542,,154.32926149998093,154.34211219998542,155.3428116000141,155.3428116000141,155.3428116000141,155.3428116000141,155.3428116000141,156.342133499973,156.342133499973,156.67769510002108,z,1,0.321159599989187,None,,,,,,,,,,,,,,,066450,001,2024-10-14_22h17.51.370,motor sequence,2024.1.5,None,2024-10-14 22h17.54.250816 +0530,
-50,x,13,0,52,0,,,,,156.6920104000019,,156.67978700000094,156.6920104000019,157.69289659999777,157.69289659999777,157.69289659999777,157.69289659999777,157.69289659999777,158.6921288999729,158.6921288999729,159.26093879999826,x,1,0.5539361000410281,None,,,,,,,,,,,,,,,066450,001,2024-10-14_22h17.51.370,motor sequence,2024.1.5,None,2024-10-14 22h17.54.250816 +0530,
150,v,13,1,53,1,,,,,159.2756240000017,,159.26310470001772,159.2756240000017,160.2758646000293,160.2758646000293,160.2758646000293,160.2758646000293,160.2758646000293,161.27559620002285,161.27559620002285,162.81054029997904,v,1,1.5184501999756321,None,,,,,,,,,,,,,,,066450,001,2024-10-14_22h17.51.370,motor sequence,2024.1.5,None,2024-10-14 22h17.54.250816 +0530,
50,c,13,2,54,2,,,,,162.8252722999896,,162.8123974999762,162.8252722999896,163.82646910002222,163.82646910002222,163.82646910002222,163.82646910002222,163.82646910002222,164.825396500004,164.825396500004,165.27880079997703,c,1,0.4509251000126824,None,,,,,,,,,,,,,,,066450,001,2024-10-14_22h17.51.370,motor sequence,2024.1.5,None,2024-10-14 22h17.54.250816 +0530,
-150,z,13,3,55,3,,,,,165.29258940002182,,165.28082350001205,165.29258940002182,166.2923482999904,166.2923482999904,166.2923482999904,166.2923482999904,166.2923482999904,167.2922376000206,167.2922376000206,168.87763790000463,z,1,1.580250500002876,None,,,,,,,,,,,,,,,066450,001,2024-10-14_22h17.51.370,motor sequence,2024.1.5,None,2024-10-14 22h17.54.250816 +0530,
-50,x,14,0,56,0,,,,,168.89217850001296,,168.87968289997661,168.89217850001296,169.89272730000084,169.89272730000084,169.89272730000084,169.89272730000084,169.89272730000084,170.89233100001002,170.89233100001002,171.51078980002785,x,1,0.6123458999791183,None,,,,,,,,,,,,,,,066450,001,2024-10-14_22h17.51.370,motor sequence,2024.1.5,None,2024-10-14 22h17.54.250816 +0530,
150,v,14,1,57,1,,,,,171.52757179999026,,171.5128204000066,171.52757179999026,172.525797099981,172.525797099981,172.525797099981,172.525797099981,172.5432349999901,173.5252804000047,173.5252804000047,174.8271891999757,v,1,1.2905761000001803,None,,,,,,,,,,,,,,,066450,001,2024-10-14_22h17.51.370,motor sequence,2024.1.5,None,2024-10-14 22h17.54.250816 +0530,
50,c,14,2,58,2,,,,,174.84202149999328,,174.82915070001036,174.84202149999328,175.84299049997935,175.84299049997935,175.84299049997935,175.84299049997935,175.84299049997935,176.8420348999789,176.8420348999789,177.39433129999088,c,1,0.549509999982547,None,,,,,,,,,,,,,,,066450,001,2024-10-14_22h17.51.370,motor sequence,2024.1.5,None,2024-10-14 22h17.54.250816 +0530,
-150,z,14,3,59,3,,,,,177.4090202000225,,177.39621239999542,177.4090202000225,178.40928560000611,178.40928560000611,178.40928560000611,178.40928560000611,178.40928560000611,179.40899099997478,179.40899099997478,180.41087479999987,z,1,0.9989763000048697,None,,,,,,,,,,,,,,,066450,001,2024-10-14_22h17.51.370,motor sequence,2024.1.5,None,2024-10-14 22h17.54.250816 +0530,
-50,x,15,0,60,0,,,,,180.42673509998713,,180.41269239998655,180.42673509998713,181.42581390001578,181.42581390001578,181.42581390001578,181.42581390001578,181.42581390001578,182.42633290000958,182.42633290000958,183.4271322999848,x,1,0.9895555000402965,None,,,,,,,,,,,,,,,066450,001,2024-10-14_22h17.51.370,motor sequence,2024.1.5,None,2024-10-14 22h17.54.250816 +0530,
150,v,15,1,61,1,,,,,183.4419731000089,,183.42916350002633,183.4419731000089,184.44265440001618,184.44265440001618,184.44265440001618,184.44265440001618,184.44265440001618,185.44274530000985,185.44274530000985,187.09665889997268,v,1,1.6390358000062406,None,,,,,,,,,,,,,,,066450,001,2024-10-14_22h17.51.370,motor sequence,2024.1.5,None,2024-10-14 22h17.54.250816 +0530,
50,c,15,2,62,2,,,,,187.111270399997,,187.09775289997924,187.111270399997,188.11090909998165,188.11090909998165,188.11090909998165,188.11090909998165,188.11090909998165,189.11076660000253,189.11076660000253,190.49547259998508,c,1,1.382645900011994,None,,,,,,,,,,,,,,,066450,001,2024-10-14_22h17.51.370,motor sequence,2024.1.5,None,2024-10-14 22h17.54.250816 +0530,
-150,z,15,3,63,3,,,,,190.51073259999976,,190.49793140002294,190.51073259999976,191.51164420001442,191.51164420001442,191.51164420001442,191.51164420001442,191.51164420001442,192.51479619997554,192.51479619997554,192.8091311000171,z,1,0.26805199997033924,None,,,,,,,,,,,,,,,066450,001,2024-10-14_22h17.51.370,motor sequence,2024.1.5,None,2024-10-14 22h17.54.250816 +0530,
-50,x,16,0,64,0,,,,,192.8284554000129,,192.8111176000093,192.8284554000129,193.82636920001823,193.82636920001823,193.82636920001823,193.82636920001823,193.84418090002146,194.8254671000177,194.8254671000177,195.22840169997653,x,1,0.3973095000255853,None,,,,,,,,,,,,,,,066450,001,2024-10-14_22h17.51.370,motor sequence,2024.1.5,None,2024-10-14 22h17.54.250816 +0530,
150,v,16,1,65,1,,,,,195.24338330002502,,195.23044200002914,195.24338330002502,196.2426167000085,196.2426167000085,196.2426167000085,196.2426167000085,196.2426167000085,197.24252189998515,197.24252189998515,198.21106990001863,v,1,0.955602900008671,None,,,,,,,,,,,,,,,066450,001,2024-10-14_22h17.51.370,motor sequence,2024.1.5,None,2024-10-14 22h17.54.250816 +0530,
50,c,16,2,66,2,,,,,198.225643999991,,198.21312849997776,198.225643999991,199.22616489999928,199.22616489999928,199.22616489999928,199.22616489999928,199.22616489999928,200.22557100001723,200.22557100001723,200.27806719997898,c,1,0.04868809995241463,None,,,,,,,,,,,,,,,066450,001,2024-10-14_22h17.51.370,motor sequence,2024.1.5,None,2024-10-14 22h17.54.250816 +0530,
-150,z,16,3,67,3,,,,,200.29194099997403,,200.28010209999047,200.29194099997403,201.29311189998407,201.29311189998407,201.29311189998407,201.29311189998407,201.29311189998407,202.2924380999757,202.2924380999757,202.6774578000186,z,1,0.38024939998285845,None,,,,,,,,,,,,,,,066450,001,2024-10-14_22h17.51.370,motor sequence,2024.1.5,None,2024-10-14 22h17.54.250816 +0530,
-50,x,17,0,68,0,,,,,202.69241930003045,,202.679370799975,202.69241930003045,203.69303580000997,203.69303580000997,203.69303580000997,203.69303580000997,203.69303580000997,204.69245959998807,204.69245959998807,205.0114065000089,x,1,0.3129099000361748,None,,,,,,,,,,,,,,,066450,001,2024-10-14_22h17.51.370,motor sequence,2024.1.5,None,2024-10-14 22h17.54.250816 +0530,
150,v,17,1,69,1,,,,,205.0253706999938,,205.01342979999026,205.0253706999938,206.0243410000112,206.0243410000112,206.0243410000112,206.0243410000112,206.0243410000112,207.02596749999793,207.02596749999793,208.4122165000299,v,1,1.3793375000241213,None,,,,,,,,,,,,,,,066450,001,2024-10-14_22h17.51.370,motor sequence,2024.1.5,None,2024-10-14 22h17.54.250816 +0530,
50,c,17,2,70,2,,,,,208.42597959999694,,208.41418129997328,208.42597959999694,209.42629779997515,209.42629779997515,209.42629779997515,209.42629779997515,209.42629779997515,210.4256492999848,210.4256492999848,211.71069370000623,c,1,1.2761651999899186,None,,,,,,,,,,,,,,,066450,001,2024-10-14_22h17.51.370,motor sequence,2024.1.5,None,2024-10-14 22h17.54.250816 +0530,
-150,z,17,3,71,3,,,,,211.7253786000074,,211.71269780001603,211.7253786000074,212.72636989998864,212.72636989998864,212.72636989998864,212.72636989998864,212.72636989998864,213.72620189998997,213.72620189998997,214.64562269998714,z,1,0.9124864999903366,None,,,,,,,,,,,,,,,066450,001,2024-10-14_22h17.51.370,motor sequence,2024.1.5,None,2024-10-14 22h17.54.250816 +0530,
-50,x,18,0,72,0,,,,,214.6590545999934,,214.64745699998457,214.6590545999934,215.66017749998719,215.66017749998719,215.66017749998719,215.66017749998719,215.66017749998719,216.67515259998618,216.67515259998618,217.84230610000668,x,1,1.1587228999705985,None,,,,,,,,,,,,,,,066450,001,2024-10-14_22h17.51.370,motor sequence,2024.1.5,None,2024-10-14 22h17.54.250816 +0530,
150,v,18,1,73,1,,,,,217.85890819999622,,217.8440702999942,217.85890819999622,218.8434974999982,218.8434974999982,218.8434974999982,218.8434974999982,218.85936459997902,219.84276590001537,219.84276590001537,220.81079770001816,v,1,0.9579234999837354,None,,,,,,,,,,,,,,,066450,001,2024-10-14_22h17.51.370,motor sequence,2024.1.5,None,2024-10-14 22h17.54.250816 +0530,
50,c,18,2,74,2,,,,,220.82621359999757,,220.8127568999771,220.82621359999757,221.82634799997322,221.82634799997322,221.82634799997322,221.82634799997322,221.82634799997322,222.82582109997747,222.82582109997747,223.59469060000265,c,1,0.7664809999987483,None,,,,,,,,,,,,,,,066450,001,2024-10-14_22h17.51.370,motor sequence,2024.1.5,None,2024-10-14 22h17.54.250816 +0530,
-150,z,18,3,75,3,,,,,223.60885710001457,,223.59663990000263,223.60885710001457,224.60929990001023,224.60929990001023,224.60929990001023,224.60929990001023,224.60929990001023,225.60983570001554,225.60983570001554,226.9278022000217,z,1,1.3095510000130162,None,,,,,,,,,,,,,,,066450,001,2024-10-14_22h17.51.370,motor sequence,2024.1.5,None,2024-10-14 22h17.54.250816 +0530,
-50,x,19,0,76,0,,,,,226.94208890001755,,226.92991770000663,226.94208890001755,227.9430996000301,227.9430996000301,227.9430996000301,227.9430996000301,227.9430996000301,228.9418650000007,228.9418650000007,230.9273234999855,x,1,1.9749771999777295,None,,,,,,,,,,,,,,,066450,001,2024-10-14_22h17.51.370,motor sequence,2024.1.5,None,2024-10-14 22h17.54.250816 +0530,
150,v,19,1,77,1,,,,,230.94243360002292,,230.92949459998636,230.94243360002292,231.9435014000046,231.9435014000046,231.9435014000046,231.9435014000046,231.9435014000046,232.94214060000377,232.94214060000377,236.91150310001103,v,1,3.9636256000376306,None,,,,,,,,,,,,,,,066450,001,2024-10-14_22h17.51.370,motor sequence,2024.1.5,None,2024-10-14 22h17.54.250816 +0530,
50,c,19,2,78,2,,,,,236.9256069000112,,236.91344159998698,236.9256069000112,237.92620059999172,237.92620059999172,237.92620059999172,237.92620059999172,237.92620059999172,238.92590450000716,238.92590450000716,240.1108574999962,c,1,1.1720054000033997,None,,,,,,,,,,,,,,,066450,001,2024-10-14_22h17.51.370,motor sequence,2024.1.5,None,2024-10-14 22h17.54.250816 +0530,
-150,z,19,3,79,3,,,,,240.12589089997346,,240.11291139997775,240.12589089997346,241.12601359997643,241.12601359997643,241.12601359997643,241.12601359997643,241.12601359997643,242.12566140003037,242.12566140003037,242.4607462999993,z,1,0.33048199996119365,None,,,,,,,,,,,,,,,066450,001,2024-10-14_22h17.51.370,motor sequence,2024.1.5,None,2024-10-14 22h17.54.250816 +0530,
-50,x,20,0,80,0,,,,,242.47586790000787,,242.46261240000604,242.47586790000787,243.47672099998454,243.47672099998454,243.47672099998454,243.47672099998454,243.47672099998454,244.47597059997497,244.47597059997497,245.22819729999173,x,1,0.7464591000461951,None,,,,,,,,,,,,,,,066450,001,2024-10-14_22h17.51.370,motor sequence,2024.1.5,None,2024-10-14 22h17.54.250816 +0530,
150,v,20,1,81,1,,,,,245.24307710002176,,245.23015730001498,245.24307710002176,246.24291620001895,246.24291620001895,246.24291620001895,246.24291620001895,246.24291620001895,247.24262789997738,247.24262789997738,249.32730880001327,v,1,2.0686756999930367,None,,,,,,,,,,,,,,,066450,001,2024-10-14_22h17.51.370,motor sequence,2024.1.5,None,2024-10-14 22h17.54.250816 +0530,
50,c,20,2,82,2,,,,,249.34230519999983,,249.32930899999337,249.34230519999983,250.34312729997328,250.34312729997328,250.34312729997328,250.34312729997328,250.34312729997328,251.34141120000277,251.34141120000277,253.37817370000994,c,1,2.022914999979548,None,,,,,,,,,,,,,,,066450,001,2024-10-14_22h17.51.370,motor sequence,2024.1.5,None,2024-10-14 22h17.54.250816 +0530,
-150,z,20,3,83,3,,,,,253.39406680001412,,253.37992079998367,253.39406680001412,254.39461989997653,254.39461989997653,254.39461989997653,254.39461989997653,254.39461989997653,255.39534659998026,255.39534659998026,256.46267139998963,z,1,1.064283500018064,None,,,,,,,,,,,,,,,066450,001,2024-10-14_22h17.51.370,motor sequence,2024.1.5,None,2024-10-14 22h17.54.250816 +0530,
-50,x,21,0,84,0,,,,,256.4763900000253,,256.46450750000076,256.4763900000253,257.4772284000064,257.4772284000064,257.4772284000064,257.4772284000064,257.4772284000064,258.4996010999894,258.4996010999894,259.56082359998254,x,1,1.0465433999779634,None,,,,,,,,,,,,,,,066450,001,2024-10-14_22h17.51.370,motor sequence,2024.1.5,None,2024-10-14 22h17.54.250816 +0530,
150,v,21,1,85,1,,,,,259.5757647000137,,259.5627557000262,259.5757647000137,260.57629589998396,260.57629589998396,260.57629589998396,260.57629589998396,260.57629589998396,261.5762892999919,261.5762892999919,262.7781852000044,v,1,1.193643900041934,None,,,,,,,,,,,,,,,066450,001,2024-10-14_22h17.51.370,motor sequence,2024.1.5,None,2024-10-14 22h17.54.250816 +0530,
50,c,21,2,86,2,,,,,262.79296549997525,,262.78022349998355,262.79296549997525,263.79301309998846,263.79301309998846,263.79301309998846,263.79301309998846,263.79301309998846,264.7923617999768,264.7923617999768,265.12856949999696,c,1,0.3216293000150472,None,,,,,,,,,,,,,,,066450,001,2024-10-14_22h17.51.370,motor sequence,2024.1.5,None,2024-10-14 22h17.54.250816 +0530,
-150,z,21,3,87,3,,,,,265.1424760000082,,265.1306927999831,265.1424760000082,266.14333609997993,266.14333609997993,266.14333609997993,266.14333609997993,266.14333609997993,267.1425434999983,267.1425434999983,267.72756799997296,z,1,0.5729527000221424,None,,,,,,,,,,,,,,,066450,001,2024-10-14_22h17.51.370,motor sequence,2024.1.5,None,2024-10-14 22h17.54.250816 +0530,
-50,x,22,0,88,0,,,,,267.7424681999837,,267.72960630001035,267.7424681999837,268.74341840000125,268.74341840000125,268.74341840000125,268.74341840000125,268.74341840000125,269.74232660001144,269.74232660001144,270.67760440002894,x,1,0.9230608000070788,None,,,,,,,,,,,,,,,066450,001,2024-10-14_22h17.51.370,motor sequence,2024.1.5,None,2024-10-14 22h17.54.250816 +0530,
150,v,22,1,89,1,,,,,270.6928846000228,,270.6796454000287,270.6928846000228,271.69273210002575,271.69273210002575,271.69273210002575,271.69273210002575,271.69273210002575,272.6928155000205,272.6928155000205,273.6955339999986,v,1,0.9979295000084676,None,,,,,,,,,,,,,,,066450,001,2024-10-14_22h17.51.370,motor sequence,2024.1.5,None,2024-10-14 22h17.54.250816 +0530,
50,c,22,2,90,2,,,,,273.7093355000252,,273.69763890001923,273.7093355000252,274.70988949999446,274.70988949999446,274.70988949999446,274.70988949999446,274.70988949999446,275.7098602000042,275.7098602000042,276.19477579998784,c,1,0.47809770004823804,None,,,,,,,,,,,,,,,066450,001,2024-10-14_22h17.51.370,motor sequence,2024.1.5,None,2024-10-14 22h17.54.250816 +0530,
-150,z,22,3,91,3,,,,,276.2089344999986,,276.19686470000306,276.2089344999986,277.2098132999963,277.2098132999963,277.2098132999963,277.2098132999963,277.2098132999963,278.20891829999164,278.20891829999164,279.04513520002365,z,1,0.8210558000137098,None,,,,,,,,,,,,,,,066450,001,2024-10-14_22h17.51.370,motor sequence,2024.1.5,None,2024-10-14 22h17.54.250816 +0530,
-50,x,23,0,92,0,,,,,279.059056899976,,279.0471326999832,279.059056899976,280.0596755000297,280.0596755000297,280.0596755000297,280.0596755000297,280.0596755000297,281.0590032999753,281.0590032999753,283.29454430000624,x,1,2.2291805000277236,None,,,,,,,,,,,,,,,066450,001,2024-10-14_22h17.51.370,motor sequence,2024.1.5,None,2024-10-14 22h17.54.250816 +0530,
150,v,23,1,93,1,,,,,283.3090714000282,,283.29637629998615,283.3090714000282,284.30982129997574,284.30982129997574,284.30982129997574,284.30982129997574,284.30982129997574,285.30941709998297,285.30941709998297,286.77814850001596,v,1,1.465596900030505,None,,,,,,,,,,,,,,,066450,001,2024-10-14_22h17.51.370,motor sequence,2024.1.5,None,2024-10-14 22h17.54.250816 +0530,
50,c,23,2,94,2,,,,,286.7923533000285,,286.78010400000494,286.7923533000285,287.7932772000204,287.7932772000204,287.7932772000204,287.7932772000204,287.7932772000204,288.793030300003,288.793030300003,289.81126109999605,c,1,1.009843300038483,None,,,,,,,,,,,,,,,066450,001,2024-10-14_22h17.51.370,motor sequence,2024.1.5,None,2024-10-14 22h17.54.250816 +0530,
-150,z,23,3,95,3,,,,,289.82646379998187,,289.81318810000084,289.82646379998187,290.8266323999851,290.8266323999851,290.8266323999851,290.8266323999851,290.8266323999851,291.8266273000045,291.8266273000045,292.7613366000005,z,1,0.9177436000318266,None,,,,,,,,,,,,,,,066450,001,2024-10-14_22h17.51.370,motor sequence,2024.1.5,None,2024-10-14 22h17.54.250816 +0530,
-50,x,24,0,96,0,,,,,292.77595789998304,,292.76332500000717,292.77595789998304,293.77661220001755,293.77661220001755,293.77661220001755,293.77661220001755,293.77661220001755,294.7757562000188,294.7757562000188,295.8581716999761,x,1,1.0652207999955863,None,,,,,,,,,,,,,,,066450,001,2024-10-14_22h17.51.370,motor sequence,2024.1.5,None,2024-10-14 22h17.54.250816 +0530,
150,v,24,1,97,1,,,,,295.8746242999914,,295.8599799000076,295.8746242999914,296.86042679997627,296.86042679997627,296.86042679997627,296.86042679997627,296.87639130000025,297.8597943999921,297.8597943999921,298.26093699998455,v,1,0.3947677999967709,None,,,,,,,,,,,,,,,066450,001,2024-10-14_22h17.51.370,motor sequence,2024.1.5,None,2024-10-14 22h17.54.250816 +0530,
50,c,24,2,98,2,,,,,298.27605769998627,,298.2630408999976,298.27605769998627,299.27662050002255,299.27662050002255,299.27662050002255,299.27662050002255,299.27662050002255,300.2758786000195,300.2758786000195,301.09409989998676,c,1,0.8028050999855623,None,,,,,,,,,,,,,,,066450,001,2024-10-14_22h17.51.370,motor sequence,2024.1.5,None,2024-10-14 22h17.54.250816 +0530,
-150,z,24,3,99,3,,,,,301.1092483000248,,301.0961153000244,301.1092483000248,302.1096982000163,302.1096982000163,302.1096982000163,302.1096982000163,302.1096982000163,303.1093133999966,303.1093133999966,307.39416269998765,z,1,4.277446800027974,None,,,,,,,,,,,,,,,066450,001,2024-10-14_22h17.51.370,motor sequence,2024.1.5,None,2024-10-14 22h17.54.250816 +0530,
-50,x,25,0,100,0,,,,,307.4091818999732,,307.3962212000042,307.4091818999732,308.4097293000086,308.4097293000086,308.4097293000086,308.4097293000086,308.4097293000086,309.4096354999929,309.4096354999929,310.9446202000254,x,1,1.518856799986679,None,,,,,,,,,,,,,,,066450,001,2024-10-14_22h17.51.370,motor sequence,2024.1.5,None,2024-10-14 22h17.54.250816 +0530,
150,v,25,1,101,1,,,,,310.9593923999928,,310.9466185999918,310.9593923999928,311.95959689997835,311.95959689997835,311.95959689997835,311.95959689997835,311.95959689997835,312.95901400002185,312.95901400002185,314.7109530000016,v,1,1.7346057000104338,None,,,,,,,,,,,,,,,066450,001,2024-10-14_22h17.51.370,motor sequence,2024.1.5,None,2024-10-14 22h17.54.250816 +0530,
50,c,25,2,102,2,,,,,314.72585089999484,,314.71304990001954,314.72585089999484,315.72639680001885,315.72639680001885,315.72639680001885,315.72639680001885,315.72639680001885,316.7267370999907,316.7267370999907,317.6107597000082,c,1,0.86872750002658,None,,,,,,,,,,,,,,,066450,001,2024-10-14_22h17.51.370,motor sequence,2024.1.5,None,2024-10-14 22h17.54.250816 +0530,
-150,z,25,3,103,3,,,,,317.62602520000655,,317.61265470000217,317.62602520000655,318.6266506999964,318.6266506999964,318.6266506999964,318.6266506999964,318.6266506999964,319.6257927999832,319.6257927999832,320.82818900002167,z,1,1.1950460000080056,None,,,,,,,,,,,,,,,066450,001,2024-10-14_22h17.51.370,motor sequence,2024.1.5,None,2024-10-14 22h17.54.250816 +0530,
-50,x,26,0,104,0,,,,,320.84252710000146,,320.830037000007,320.84252710000146,321.8437871999922,321.8437871999922,321.8437871999922,321.8437871999922,321.8437871999922,322.8424760000198,322.8424760000198,325.56083450000733,x,1,2.713578100025188,None,,,,,,,,,,,,,,,066450,001,2024-10-14_22h17.51.370,motor sequence,2024.1.5,None,2024-10-14 22h17.54.250816 +0530,
150,v,26,1,105,1,,,,,325.5757695999928,,325.5626697000116,325.5757695999928,326.5767049000133,326.5767049000133,326.5767049000133,326.5767049000133,326.5767049000133,327.57608690002235,327.57608690002235,329.460887800029,v,1,1.876086000003852,None,,,,,,,,,,,,,,,066450,001,2024-10-14_22h17.51.370,motor sequence,2024.1.5,None,2024-10-14 22h17.54.250816 +0530,
50,c,26,2,106,2,,,,,329.47582910000347,,329.46268200001214,329.47582910000347,330.47678279998945,330.47678279998945,330.47678279998945,330.47678279998945,330.47678279998945,331.4759763000184,331.4759763000184,339.04561590001686,c,1,7.566992000036407,None,,,,,,,,,,,,,,,066450,001,2024-10-14_22h17.51.370,motor sequence,2024.1.5,None,2024-10-14 22h17.54.250816 +0530,
-150,z,26,3,107,3,,,,,339.0590222000028,,339.04766889999155,339.0590222000028,340.0598673999775,340.0598673999775,340.0598673999775,340.0598673999775,340.0598673999775,341.05926190002356,341.05926190002356,343.2941930000088,z,1,2.2286114000016823,None,,,,,,,,,,,,,,,066450,001,2024-10-14_22h17.51.370,motor sequence,2024.1.5,None,2024-10-14 22h17.54.250816 +0530,
-50,x,27,0,108,0,,,,,343.3090015000198,,343.29611679998925,343.3090015000198,344.3095342000015,344.3095342000015,344.3095342000015,344.3095342000015,344.3095342000015,345.30901279998943,345.30901279998943,346.495742900006,x,1,1.182758199982345,None,,,,,,,,,,,,,,,066450,001,2024-10-14_22h17.51.370,motor sequence,2024.1.5,None,2024-10-14 22h17.54.250816 +0530,
150,v,27,1,109,1,,,,,346.50942529999884,,346.49759480002103,346.50942529999884,347.50962580001215,347.50962580001215,347.50962580001215,347.50962580001215,347.50962580001215,348.50970729999244,348.50970729999244,350.1277707000263,v,1,1.602736900036689,None,,,,,,,,,,,,,,,066450,001,2024-10-14_22h17.51.370,motor sequence,2024.1.5,None,2024-10-14 22h17.54.250816 +0530,
50,c,27,2,110,2,,,,,350.14240650000283,,350.12961040000664,350.14240650000283,351.14324990002206,351.14324990002206,351.14324990002206,351.14324990002206,351.14324990002206,352.14286959997844,352.14286959997844,352.8279067000258,c,1,0.6743311999598518,None,,,,,,,,,,,,,,,066450,001,2024-10-14_22h17.51.370,motor sequence,2024.1.5,None,2024-10-14 22h17.54.250816 +0530,
-150,z,27,3,111,3,,,,,352.8424728999962,,352.82990880002035,352.8424728999962,353.8434348999872,353.8434348999872,353.8434348999872,353.8434348999872,353.8434348999872,354.8423994000186,354.8423994000186,356.29446870001266,z,1,1.4401570999762043,None,,,,,,,,,,,,,,,066450,001,2024-10-14_22h17.51.370,motor sequence,2024.1.5,None,2024-10-14 22h17.54.250816 +0530,
-50,x,28,0,112,0,,,,,356.3093686000211,,356.29652139998507,356.3093686000211,357.3102955999784,357.3102955999784,357.3102955999784,357.3102955999784,357.3102955999784,358.30979799997294,358.30979799997294,358.9450628000195,x,1,0.6300579999806359,None,,,,,,,,,,,,,,,066450,001,2024-10-14_22h17.51.370,motor sequence,2024.1.5,None,2024-10-14 22h17.54.250816 +0530,
150,v,28,1,113,1,,,,,358.9596107000252,,358.9470486000064,358.9596107000252,359.9599370000069,359.9599370000069,359.9599370000069,359.9599370000069,359.9599370000069,360.96010740002384,360.96010740002384,361.32787079998525,v,1,0.3553506000316702,None,,,,,,,,,,,,,,,066450,001,2024-10-14_22h17.51.370,motor sequence,2024.1.5,None,2024-10-14 22h17.54.250816 +0530,
50,c,28,2,114,2,,,,,361.3427144999732,,361.33003120002104,361.3427144999732,362.3430093000061,362.3430093000061,362.3430093000061,362.3430093000061,362.3430093000061,363.3424183999887,363.3424183999887,363.67753009998705,c,1,0.3247378999949433,None,,,,,,,,,,,,,,,066450,001,2024-10-14_22h17.51.370,motor sequence,2024.1.5,None,2024-10-14 22h17.54.250816 +0530,
-150,z,28,3,115,3,,,,,363.6923848000006,,363.6793485999806,363.6923848000006,364.6934016000014,364.6934016000014,364.6934016000014,364.6934016000014,364.6934016000014,365.69283559999894,365.69283559999894,366.41118350002216,z,1,0.7051057000062428,None,,,,,,,,,,,,,,,066450,001,2024-10-14_22h17.51.370,motor sequence,2024.1.5,None,2024-10-14 22h17.54.250816 +0530,
-50,x,29,0,116,0,,,,,366.42631150002126,,366.41318189998856,366.42631150002126,367.4262750999769,367.4262750999769,367.4262750999769,367.4262750999769,367.4262750999769,368.42612389998976,368.42612389998976,368.8444390000077,x,1,0.40076559997396544,None,,,,,,,,,,,,,,,066450,001,2024-10-14_22h17.51.370,motor sequence,2024.1.5,None,2024-10-14 22h17.54.250816 +0530,
150,v,29,1,117,1,,,,,368.8591526999953,,368.8462632999872,368.8591526999953,369.85964189999504,369.85964189999504,369.85964189999504,369.85964189999504,369.85964189999504,370.85910970001714,370.85910970001714,371.76210490002995,v,1,0.8977469999808818,None,,,,,,,,,,,,,,,066450,001,2024-10-14_22h17.51.370,motor sequence,2024.1.5,None,2024-10-14 22h17.54.250816 +0530,
50,c,29,2,118,2,,,,,371.7765642000013,,371.76418170001125,371.7765642000013,372.77687170001445,372.77687170001445,372.77687170001445,372.77687170001445,372.77687170001445,373.7759477000218,373.7759477000218,374.1596636999748,c,1,0.369363899983,None,,,,,,,,,,,,,,,066450,001,2024-10-14_22h17.51.370,motor sequence,2024.1.5,None,2024-10-14 22h17.54.250816 +0530,
-150,z,29,3,119,3,,,,,374.1763417000184,,374.16167459997814,374.1763417000184,375.1768207999994,375.1768207999994,375.1768207999994,375.1768207999994,375.1768207999994,376.17592160002096,376.17592160002096,376.97862990002614,z,1,0.800563900033012,None,,,,,,,,,,,,,,,066450,001,2024-10-14_22h17.51.370,motor sequence,2024.1.5,None,2024-10-14 22h17.54.250816 +0530,
-50,x,30,0,120,0,,,,,376.99287010001717,,376.98070740001276,376.99287010001717,377.99316100002034,377.99316100002034,377.99316100002034,377.99316100002034,377.99316100002034,378.99280780000845,378.99280780000845,380.4131798000308,x,1,1.4174352000118233,None,,,,,,,,,,,,,,,066450,001,2024-10-14_22h17.51.370,motor sequence,2024.1.5,None,2024-10-14 22h17.54.250816 +0530,
150,v,30,1,121,1,,,,,380.4405664000078,,380.4164563000086,380.4405664000078,381.42677720001666,381.42677720001666,381.42677720001666,381.42677720001666,381.443013000011,382.42582800000673,382.42582800000673,384.1614585000207,v,1,1.73077139997622,None,,,,,,,,,,,,,,,066450,001,2024-10-14_22h17.51.370,motor sequence,2024.1.5,None,2024-10-14 22h17.54.250816 +0530,
50,c,30,2,122,2,,,,,384.1757788999821,,384.16345130000263,384.1757788999821,385.17662560002645,385.17662560002645,385.17662560002645,385.17662560002645,385.17662560002645,386.17593480000505,386.17593480000505,387.4614636999904,c,1,1.278864899999462,None,,,,,,,,,,,,,,,066450,001,2024-10-14_22h17.51.370,motor sequence,2024.1.5,None,2024-10-14 22h17.54.250816 +0530,
-150,z,30,3,123,3,,,,,387.4759291000082,,387.4637238000287,387.4759291000082,388.47660559997894,388.47660559997894,388.47660559997894,388.47660559997894,388.47660559997894,389.4763763999799,389.4763763999799,390.4281092999736,z,1,0.9460324000101537,None,,,,,,,,,,,,,,,066450,001,2024-10-14_22h17.51.370,motor sequence,2024.1.5,None,2024-10-14 22h17.54.250816 +0530,
-50,x,31,0,124,0,,,,,390.44284019997576,,390.4299823999754,390.44284019997576,391.44310570001835,391.44310570001835,391.44310570001835,391.44310570001835,391.44310570001835,392.44323319999967,392.44323319999967,392.7611544000101,x,1,0.3048149000387639,None,,,,,,,,,,,,,,,066450,001,2024-10-14_22h17.51.370,motor sequence,2024.1.5,None,2024-10-14 22h17.54.250816 +0530,
150,v,31,1,125,1,,,,,392.77585179999005,,392.7630597000243,392.77585179999005,393.77666939998744,393.77666939998744,393.77666939998744,393.77666939998744,393.77666939998744,394.775853500003,394.775853500003,397.1281221000245,v,1,2.347016000014264,None,,,,,,,,,,,,,,,066450,001,2024-10-14_22h17.51.370,motor sequence,2024.1.5,None,2024-10-14 22h17.54.250816 +0530,
50,c,31,2,126,2,,,,,397.14301140001044,,397.1301649999805,397.14301140001044,398.14359789999435,398.14359789999435,398.14359789999435,398.14359789999435,398.14359789999435,399.14273070002673,399.14273070002673,400.0460520000197,c,1,0.8999819000018761,None,,,,,,,,,,,,,,,066450,001,2024-10-14_22h17.51.370,motor sequence,2024.1.5,None,2024-10-14 22h17.54.250816 +0530,
-150,z,31,3,127,3,,,,,400.0610078999889,,400.0480916000088,400.0610078999889,401.05996230000164,401.05996230000164,401.05996230000164,401.05996230000164,401.0764003000222,402.05925160000334,402.05925160000334,402.7109876999748,lcmd,0,0.6360977999866009,None,,,,,,,,,,,,,,,066450,001,2024-10-14_22h17.51.370,motor sequence,2024.1.5,None,2024-10-14 22h17.54.250816 +0530,
-50,x,32,0,128,0,,,,,402.7265108000138,,402.71289149997756,402.7265108000138,403.7332507999963,403.7332507999963,403.7332507999963,403.7332507999963,403.7332507999963,404.7322669000132,404.7322669000132,406.22745760000544,x,1,1.4884312000358477,None,,,,,,,,,,,,,,,066450,001,2024-10-14_22h17.51.370,motor sequence,2024.1.5,None,2024-10-14 22h17.54.250816 +0530,
150,v,32,1,129,1,,,,,406.2424306999892,,406.2292188000283,406.2424306999892,407.2427139999927,407.2427139999927,407.2427139999927,407.2427139999927,407.2427139999927,408.2416778000188,408.2416778000188,410.26134399999864,v,1,2.0135563999647275,None,,,,,,,,,,,,,,,066450,001,2024-10-14_22h17.51.370,motor sequence,2024.1.5,None,2024-10-14 22h17.54.250816 +0530,
50,c,32,2,130,2,,,,,410.2761062000063,,410.26317350001773,410.2761062000063,411.27595939999446,411.27595939999446,411.27595939999446,411.27595939999446,411.27595939999446,412.27679229999194,412.27679229999194,413.094743499998,c,1,0.80760530004045,None,,,,,,,,,,,,,,,066450,001,2024-10-14_22h17.51.370,motor sequence,2024.1.5,None,2024-10-14 22h17.54.250816 +0530,
-150,z,32,3,131,3,,,,,413.10976760002086,,413.09670069999993,413.10976760002086,414.1106261999812,414.1106261999812,414.1106261999812,414.1106261999812,414.1106261999812,415.10930920002284,415.10930920002284,415.94437939999625,z,1,0.8251187999849208,None,,,,,,,,,,,,,,,066450,001,2024-10-14_22h17.51.370,motor sequence,2024.1.5,None,2024-10-14 22h17.54.250816 +0530,
-50,x,33,0,132,0,,,,,415.9595537999994,,415.9474400000181,415.9595537999994,416.9598117999849,416.9598117999849,416.9598117999849,416.9598117999849,416.9598117999849,417.9592777999933,417.9592777999933,418.54446720000124,x,1,0.5775236999616027,None,,,,,,,,,,,,,,,066450,001,2024-10-14_22h17.51.370,motor sequence,2024.1.5,None,2024-10-14 22h17.54.250816 +0530,
150,v,33,1,133,1,,,,,418.55929439998,,418.54654780001147,418.55929439998,419.5596562999999,419.5596562999999,419.5596562999999,419.5596562999999,419.5596562999999,420.55924720002804,420.55924720002804,421.1944947000011,v,1,0.6182636999874376,None,,,,,,,,,,,,,,,066450,001,2024-10-14_22h17.51.370,motor sequence,2024.1.5,None,2024-10-14 22h17.54.250816 +0530,
50,c,33,2,134,2,,,,,421.2091877000057,,421.1962796000298,421.2091877000057,422.20991929998854,422.20991929998854,422.20991929998854,422.20991929998854,422.20991929998854,423.2093438000302,423.2093438000302,423.49582609999925,c,1,0.2806824999861419,None,,,,,,,,,,,,,,,066450,001,2024-10-14_22h17.51.370,motor sequence,2024.1.5,None,2024-10-14 22h17.54.250816 +0530,
-150,z,33,3,135,3,,,,,423.5099162000115,,423.4979685000144,423.5099162000115,424.5101679000072,424.5101679000072,424.5101679000072,424.5101679000072,424.5101679000072,425.51001720002387,425.51001720002387,426.6443331000046,z,1,1.1173015999956988,None,,,,,,,,,,,,,,,066450,001,2024-10-14_22h17.51.370,motor sequence,2024.1.5,None,2024-10-14 22h17.54.250816 +0530,
-50,x,34,0,136,0,,,,,426.66261070000473,,426.6464723999961,426.66261070000473,427.6597139000078,427.6597139000078,427.6597139000078,427.6597139000078,427.6770730999997,428.65943629998947,428.65943629998947,429.07771139999386,x,1,0.40835129999322817,None,,,,,,,,,,,,,,,066450,001,2024-10-14_22h17.51.370,motor sequence,2024.1.5,None,2024-10-14 22h17.54.250816 +0530,
150,v,34,1,137,1,,,,,429.0929568000138,,429.0795403000084,429.0929568000138,430.09349400002975,430.09349400002975,430.09349400002975,430.09349400002975,430.09349400002975,431.0927813000162,431.0927813000162,431.76093310001306,v,1,0.6536945999832824,None,,,,,,,,,,,,,,,066450,001,2024-10-14_22h17.51.370,motor sequence,2024.1.5,None,2024-10-14 22h17.54.250816 +0530,
50,c,34,2,138,2,,,,,431.77581740001915,,431.7627917000209,431.77581740001915,432.77752220002003,432.77752220002003,432.77752220002003,432.77752220002003,432.77752220002003,433.77589350001654,433.77589350001654,434.1279716999852,c,1,0.34459150000475347,None,,,,,,,,,,,,,,,066450,001,2024-10-14_22h17.51.370,motor sequence,2024.1.5,None,2024-10-14 22h17.54.250816 +0530,
-150,z,34,3,139,3,,,,,434.14274869998917,,434.1299479000154,434.14274869998917,435.14297099999385,435.14297099999385,435.14297099999385,435.14297099999385,435.14297099999385,436.1429906000267,436.1429906000267,436.92794299998786,z,1,0.7671945000183769,None,,,,,,,,,,,,,,,066450,001,2024-10-14_22h17.51.370,motor sequence,2024.1.5,None,2024-10-14 22h17.54.250816 +0530,
-50,x,35,0,140,0,,,,,436.94322760001523,,436.92981930001406,436.94322760001523,437.9433332000044,437.9433332000044,437.9433332000044,437.9433332000044,437.9433332000044,438.9426704000216,438.9426704000216,439.24451330001466,x,1,0.2933289000065997,None,,,,,,,,,,,,,,,066450,001,2024-10-14_22h17.51.370,motor sequence,2024.1.5,None,2024-10-14 22h17.54.250816 +0530,
150,v,35,1,141,1,,,,,439.2593969000154,,439.2465355999884,439.2593969000154,440.26009689999046,440.26009689999046,440.26009689999046,440.26009689999046,440.26009689999046,441.25992560002487,441.25992560002487,441.56122299999697,v,1,0.2938181000063196,None,,,,,,,,,,,,,,,066450,001,2024-10-14_22h17.51.370,motor sequence,2024.1.5,None,2024-10-14 22h17.54.250816 +0530,
50,c,35,2,142,2,,,,,441.57602809998207,,441.56303030002164,441.57602809998207,442.57770620001247,442.57770620001247,442.57770620001247,442.57770620001247,442.57770620001247,443.57610549998935,443.57610549998935,443.82824669999536,c,1,0.23534310003742576,None,,,,,,,,,,,,,,,066450,001,2024-10-14_22h17.51.370,motor sequence,2024.1.5,None,2024-10-14 22h17.54.250816 +0530,
-150,z,35,3,143,3,,,,,443.8432612000033,,443.8300621000235,443.8432612000033,444.84354390000226,444.84354390000226,444.84354390000226,444.84354390000226,444.84354390000226,445.8429132999736,445.8429132999736,446.4291578999837,z,1,0.5839713999885134,None,,,,,,,,,,,,,,,066450,001,2024-10-14_22h17.51.370,motor sequence,2024.1.5,None,2024-10-14 22h17.54.250816 +0530,
-50,x,36,0,144,0,,,,,446.44267730001593,,446.4310901000281,446.44267730001593,447.4435354999732,447.4435354999732,447.4435354999732,447.4435354999732,447.4435354999732,448.44292180001503,448.44292180001503,448.71152489999076,x,1,0.2543671000166796,None,,,,,,,,,,,,,,,066450,001,2024-10-14_22h17.51.370,motor sequence,2024.1.5,None,2024-10-14 22h17.54.250816 +0530,
150,v,36,1,145,1,,,,,448.7261977000162,,448.71343619999243,448.7261977000162,449.7265713000088,449.7265713000088,449.7265713000088,449.7265713000088,449.7265713000088,450.72640039998805,450.72640039998805,451.02783650002675,v,1,0.2851242999895476,None,,,,,,,,,,,,,,,066450,001,2024-10-14_22h17.51.370,motor sequence,2024.1.5,None,2024-10-14 22h17.54.250816 +0530,
50,c,36,2,146,2,,,,,451.0426790000056,,451.0297283999971,451.0426790000056,452.0435211000149,452.0435211000149,452.0435211000149,452.0435211000149,452.0435211000149,453.0431330000283,453.0431330000283,453.4946198000107,c,1,0.4397006999934092,None,,,,,,,,,,,,,,,066450,001,2024-10-14_22h17.51.370,motor sequence,2024.1.5,None,2024-10-14 22h17.54.250816 +0530,
-150,z,36,3,147,3,,,,,453.50944619998336,,453.49647910002386,453.50944619998336,454.51036369998474,454.51036369998474,454.51036369998474,454.51036369998474,454.51036369998474,455.5093648000038,455.5093648000038,456.87821639998583,z,1,1.3647576000075787,None,,,,,,,,,,,,,,,066450,001,2024-10-14_22h17.51.370,motor sequence,2024.1.5,None,2024-10-14 22h17.54.250816 +0530,
-50,x,37,0,148,0,,,,,456.89262649999,,456.87996589997783,456.89262649999,457.8936875999789,457.8936875999789,457.8936875999789,457.8936875999789,457.8936875999789,458.89275940001244,458.89275940001244,460.29495050001424,x,1,1.3874996000085957,None,,,,,,,,,,,,,,,066450,001,2024-10-14_22h17.51.370,motor sequence,2024.1.5,None,2024-10-14 22h17.54.250816 +0530,
150,v,37,1,149,1,,,,,460.30935499997577,,460.29697859997395,460.30935499997577,461.31025490001775,461.31025490001775,461.31025490001775,461.31025490001775,461.31025490001775,462.31028959999094,462.31028959999094,463.4111893000081,v,1,1.0936226000194438,None,,,,,,,,,,,,,,,066450,001,2024-10-14_22h17.51.370,motor sequence,2024.1.5,None,2024-10-14 22h17.54.250816 +0530,
50,c,37,2,150,2,,,,,463.4261470999918,,463.41304379998473,463.4261470999918,464.4270135000115,464.4270135000115,464.4270135000115,464.4270135000115,464.4270135000115,465.42615010001464,465.42615010001464,467.22835069999564,c,1,1.7874310999759473,None,,,,,,,,,,,,,,,066450,001,2024-10-14_22h17.51.370,motor sequence,2024.1.5,None,2024-10-14 22h17.54.250816 +0530,
-150,z,37,3,151,3,,,,,467.2434862999944,,467.2304353999789,467.2434862999944,468.2455543000251,468.2455543000251,468.2455543000251,468.2455543000251,468.2455543000251,469.24278010003036,469.24278010003036,469.76220739999553,z,1,0.5173727999790572,None,,,,,,,,,,,,,,,066450,001,2024-10-14_22h17.51.370,motor sequence,2024.1.5,None,2024-10-14 22h17.54.250816 +0530,
-50,x,38,0,152,0,,,,,469.77604560001055,,469.76435740001034,469.77604560001055,470.77665970003,470.77665970003,470.77665970003,470.77665970003,470.77665970003,471.77697549998993,471.77697549998993,472.2447874000063,x,1,0.4509496000246145,None,,,,,,,,,,,,,,,066450,001,2024-10-14_22h17.51.370,motor sequence,2024.1.5,None,2024-10-14 22h17.54.250816 +0530,
150,v,38,1,153,1,,,,,472.25937430001795,,472.2467475999729,472.25937430001795,473.26013260002946,473.26013260002946,473.26013260002946,473.26013260002946,473.26013260002946,474.25961489998735,474.25961489998735,475.46168559999205,v,1,1.1963165999623016,None,,,,,,,,,,,,,,,066450,001,2024-10-14_22h17.51.370,motor sequence,2024.1.5,None,2024-10-14 22h17.54.250816 +0530,
50,c,38,2,154,2,,,,,475.4764267000137,,475.4636979000061,475.4764267000137,476.4769323000219,476.4769323000219,476.4769323000219,476.4769323000219,476.4769323000219,477.4767909999937,477.4767909999937,478.8109162999899,c,1,1.3175387000082992,None,,,,,,,,,,,,,,,066450,001,2024-10-14_22h17.51.370,motor sequence,2024.1.5,None,2024-10-14 22h17.54.250816 +0530,
-150,z,38,3,155,3,,,,,478.826833900006,,478.81278239999665,478.826833900006,479.82686279999325,479.82686279999325,479.82686279999325,479.82686279999325,479.82686279999325,480.8260994000011,480.8260994000011,481.6114905999857,z,1,0.78057629999239,None,,,,,,,,,,,,,,,066450,001,2024-10-14_22h17.51.370,motor sequence,2024.1.5,None,2024-10-14 22h17.54.250816 +0530,
-50,x,39,0,156,0,,,,,481.6265427999897,,481.61345940001775,481.6265427999897,482.6269073000294,482.6269073000294,482.6269073000294,482.6269073000294,482.6269073000294,483.6262677999912,483.6262677999912,484.8956018000026,x,1,1.2567851999774575,None,,,,,,,,,,,,,,,066450,001,2024-10-14_22h17.51.370,motor sequence,2024.1.5,None,2024-10-14 22h17.54.250816 +0530,
150,v,39,1,157,1,,,,,484.9102109000087,,484.8991332000005,484.9102109000087,485.9102668000269,485.9102668000269,485.9102668000269,485.9102668000269,485.9102668000269,486.9095834000036,486.9095834000036,487.8755606000195,v,1,0.9558977999840863,None,,,,,,,,,,,,,,,066450,001,2024-10-14_22h17.51.370,motor sequence,2024.1.5,None,2024-10-14 22h17.54.250816 +0530,
50,c,39,2,158,2,,,,,487.89170169999124,,487.8764766000095,487.89170169999124,488.87710849998984,488.87710849998984,488.87710849998984,488.87710849998984,488.8934357999824,489.876122799993,489.876122799993,490.9614138000179,c,1,1.0800432999967597,None,,,,,,,,,,,,,,,066450,001,2024-10-14_22h17.51.370,motor sequence,2024.1.5,None,2024-10-14 22h17.54.250816 +0530,
-150,z,39,3,159,3,,,,,490.97649380000075,,490.9632682999945,490.97649380000075,491.97705940000014,491.97705940000014,491.97705940000014,491.97705940000014,491.97705940000014,492.9761642999947,492.9761642999947,494.52848149999045,z,1,1.5491601999965496,None,,,,,,,,,,,,,,,066450,001,2024-10-14_22h17.51.370,motor sequence,2024.1.5,None,2024-10-14 22h17.54.250816 +0530,
-50,x,40,0,160,0,,,,,494.5436221000273,,494.5303149999818,494.5436221000273,495.543525999994,495.543525999994,495.543525999994,495.543525999994,495.543525999994,496.5443457000074,496.5443457000074,497.82872669998324,x,1,1.2813423000043258,None,,,,,,,,,,,,,,,066450,001,2024-10-14_22h17.51.370,motor sequence,2024.1.5,None,2024-10-14 22h17.54.250816 +0530,
150,v,40,1,161,1,,,,,497.84363890002714,,497.83043989998987,497.84363890002714,498.8436115999939,498.8436115999939,498.8436115999939,498.8436115999939,498.8436115999939,499.8434720999794,499.8434720999794,501.2623855000129,v,1,1.4155648000305519,None,,,,,,,,,,,,,,,066450,001,2024-10-14_22h17.51.370,motor sequence,2024.1.5,None,2024-10-14 22h17.54.250816 +0530,
50,c,40,2,162,2,,,,,501.27622719999636,,501.2644622999942,501.27622719999636,502.277771699999,502.277771699999,502.277771699999,502.277771699999,502.277771699999,503.27652090002084,503.27652090002084,503.9290942000225,c,1,0.6490816000150517,None,,,,,,,,,,,,,,,066450,001,2024-10-14_22h17.51.370,motor sequence,2024.1.5,None,2024-10-14 22h17.54.250816 +0530,
-150,z,40,3,163,3,,,,,503.94329299998935,,503.9313107000198,503.94329299998935,504.94405240000924,504.94405240000924,504.94405240000924,504.94405240000924,504.94405240000924,505.94316650001565,505.94316650001565,507.56145510001807,z,1,1.6123888999572955,None,,,,,,,,,,,,,,,066450,001,2024-10-14_22h17.51.370,motor sequence,2024.1.5,None,2024-10-14 22h17.54.250816 +0530,
-50,x,41,0,164,0,,,,,507.5764516000054,,507.56340829998953,507.5764516000054,508.57727880001767,508.57727880001767,508.57727880001767,508.57727880001767,508.57727880001767,509.5762049999903,509.5762049999903,511.34517550002784,x,1,1.7583350000204518,None,,,,,,,,,,,,,,,066450,001,2024-10-14_22h17.51.370,motor sequence,2024.1.5,None,2024-10-14 22h17.54.250816 +0530,
150,v,41,1,165,1,,,,,511.3597232999746,,511.34715829999186,511.3597232999746,512.3603617000044,512.3603617000044,512.3603617000044,512.3603617000044,512.3603617000044,513.359541199985,513.359541199985,518.9454069000203,v,1,5.580576300038956,None,,,,,,,,,,,,,,,066450,001,2024-10-14_22h17.51.370,motor sequence,2024.1.5,None,2024-10-14 22h17.54.250816 +0530,
50,c,41,2,166,2,,,,,518.9608467000071,,518.9472715000156,518.9608467000071,519.9606076999917,519.9606076999917,519.9606076999917,519.9606076999917,519.9606076999917,520.9602077999734,520.9602077999734,522.1115343000274,c,1,1.1404799000010826,None,,,,,,,,,,,,,,,066450,001,2024-10-14_22h17.51.370,motor sequence,2024.1.5,None,2024-10-14 22h17.54.250816 +0530,
-150,z,41,3,167,3,,,,,522.1266065000091,,522.1135395999881,522.1266065000091,523.1268277000054,523.1268277000054,523.1268277000054,523.1268277000054,523.1268277000054,524.1262442999869,524.1262442999869,525.0284027000307,z,1,0.8962473000283353,None,,,,,,,,,,,,,,,066450,001,2024-10-14_22h17.51.370,motor sequence,2024.1.5,None,2024-10-14 22h17.54.250816 +0530,
-50,x,42,0,168,0,,,,,525.0429009000072,,525.030379600008,525.0429009000072,526.0446209000074,526.0446209000074,526.0446209000074,526.0446209000074,526.0446209000074,527.043911100016,527.043911100016,528.0116310999729,x,1,0.9589258999913,None,,,,,,,,,,,,,,,066450,001,2024-10-14_22h17.51.370,motor sequence,2024.1.5,None,2024-10-14 22h17.54.250816 +0530,
150,v,42,1,169,1,,,,,528.0265679000295,,528.0135326000163,528.0265679000295,529.0270769000053,529.0270769000053,529.0270769000053,529.0270769000053,529.0270769000053,530.0262935999781,530.0262935999781,530.8455738999764,v,1,0.8048768999869935,None,,,,,,,,,,,,,,,066450,001,2024-10-14_22h17.51.370,motor sequence,2024.1.5,None,2024-10-14 22h17.54.250816 +0530,
50,c,42,2,170,2,,,,,530.8596684000222,,530.8479002999957,530.8596684000222,531.8602781000081,531.8602781000081,531.8602781000081,531.8602781000081,531.8602781000081,532.8595961999963,532.8595961999963,534.195256499981,c,1,1.3308262000209652,None,,,,,,,,,,,,,,,066450,001,2024-10-14_22h17.51.370,motor sequence,2024.1.5,None,2024-10-14 22h17.54.250816 +0530,
-150,z,42,3,171,3,,,,,534.2098430999904,,534.1970885000192,534.2098430999904,535.2104929999914,535.2104929999914,535.2104929999914,535.2104929999914,535.2104929999914,536.2096454999992,536.2096454999992,536.9612598000094,z,1,0.7397759000305086,None,,,,,,,,,,,,,,,066450,001,2024-10-14_22h17.51.370,motor sequence,2024.1.5,None,2024-10-14 22h17.54.250816 +0530,
-50,x,43,0,172,0,,,,,536.9763265000074,,536.9630769999931,536.9763265000074,537.9767050999799,537.9767050999799,537.9767050999799,537.9767050999799,537.9767050999799,538.9770158000174,538.9770158000174,539.5961002000258,x,1,0.6147344000055455,None,,,,,,,,,,,,,,,066450,001,2024-10-14_22h17.51.370,motor sequence,2024.1.5,None,2024-10-14 22h17.54.250816 +0530,
150,v,43,1,173,1,,,,,539.6106608000118,,539.5980134999845,539.6106608000118,540.6103253000183,540.6103253000183,540.6103253000183,540.6103253000183,540.6103253000183,541.6108517000102,541.6108517000102,543.1290373000083,v,1,1.5153001999715343,None,,,,,,,,,,,,,,,066450,001,2024-10-14_22h17.51.370,motor sequence,2024.1.5,None,2024-10-14 22h17.54.250816 +0530,
50,c,43,2,174,2,,,,,543.1429253999959,,543.1310124000302,543.1429253999959,544.1438572999905,544.1438572999905,544.1438572999905,544.1438572999905,544.1438572999905,545.144068100024,545.144068100024,546.1949460000033,c,1,1.0458762000198476,None,,,,,,,,,,,,,,,066450,001,2024-10-14_22h17.51.370,motor sequence,2024.1.5,None,2024-10-14 22h17.54.250816 +0530,
-150,z,43,3,175,3,,,,,546.2100904000108,,546.1966383000254,546.2100904000108,547.2104979000287,547.2104979000287,547.2104979000287,547.2104979000287,547.2104979000287,548.2098770000157,548.2098770000157,549.7457443000167,z,1,1.523838600027375,None,,,,,,,,,,,,,,,066450,001,2024-10-14_22h17.51.370,motor sequence,2024.1.5,None,2024-10-14 22h17.54.250816 +0530,
-50,x,44,0,176,0,,,,,549.7606182000018,,549.7475509999786,549.7606182000018,550.7604690000298,550.7604690000298,550.7604690000298,550.7604690000298,550.7604690000298,551.7596892000292,551.7596892000292,552.4279573999811,x,1,0.65893270005472,None,,,,,,,,,,,,,,,066450,001,2024-10-14_22h17.51.370,motor sequence,2024.1.5,None,2024-10-14 22h17.54.250816 +0530,
150,v,44,1,177,1,,,,,552.4430878999992,,552.4300177000114,552.4430878999992,553.4442395999795,553.4442395999795,553.4442395999795,553.4442395999795,553.4442395999795,554.4430664000101,554.4430664000101,556.5952276000171,v,1,2.136473799997475,None,,,,,,,,,,,,,,,066450,001,2024-10-14_22h17.51.370,motor sequence,2024.1.5,None,2024-10-14 22h17.54.250816 +0530,
50,c,44,2,178,2,,,,,556.6097912000259,,556.5971619000193,556.6097912000259,557.6105816999916,557.6105816999916,557.6105816999916,557.6105816999916,557.6105816999916,558.6097637999919,558.6097637999919,559.4954480999731,c,1,0.8817507000057958,None,,,,,,,,,,,,,,,066450,001,2024-10-14_22h17.51.370,motor sequence,2024.1.5,None,2024-10-14 22h17.54.250816 +0530,
-150,z,44,3,179,3,,,,,559.5097247000085,,559.497340300004,559.5097247000085,560.5111196999787,560.5111196999787,560.5111196999787,560.5111196999787,560.5111196999787,561.509870400012,561.509870400012,562.4291845000116,z,1,0.9164133999729529,None,,,,,,,,,,,,,,,066450,001,2024-10-14_22h17.51.370,motor sequence,2024.1.5,None,2024-10-14 22h17.54.250816 +0530,
-50,x,45,0,180,0,,,,,562.4436916999985,,562.4312301999889,562.4436916999985,563.4435533999931,563.4435533999931,563.4435533999931,563.4435533999931,563.4435533999931,564.4432682999759,564.4432682999759,564.7784182999749,x,1,0.3187865999643691,None,,,,,,,,,,,,,,,066450,001,2024-10-14_22h17.51.370,motor sequence,2024.1.5,None,2024-10-14 22h17.54.250816 +0530,
150,v,45,1,181,1,,,,,564.7934385000262,,564.7801856999868,564.7934385000262,565.7941679999931,565.7941679999931,565.7941679999931,565.7941679999931,565.7941679999931,566.7932462000172,566.7932462000172,567.161365500011,v,1,0.3515569000155665,None,,,,,,,,,,,,,,,066450,001,2024-10-14_22h17.51.370,motor sequence,2024.1.5,None,2024-10-14 22h17.54.250816 +0530,
50,c,45,2,182,2,,,,,567.1765328000183,,567.1632345999824,567.1765328000183,568.1774040000164,568.1774040000164,568.1774040000164,568.1774040000164,568.1774040000164,569.176867000002,569.176867000002,569.4782770000165,c,1,0.2930616000085138,None,,,,,,,,,,,,,,,066450,001,2024-10-14_22h17.51.370,motor sequence,2024.1.5,None,2024-10-14 22h17.54.250816 +0530,
-150,z,45,3,183,3,,,,,569.4934734000126,,569.4799659000128,569.4934734000126,570.4935736000189,570.4935736000189,570.4935736000189,570.4935736000189,570.4935736000189,571.4931234000251,571.4931234000251,572.9282303000218,z,1,1.425332700018771,None,,,,,,,,,,,,,,,066450,001,2024-10-14_22h17.51.370,motor sequence,2024.1.5,None,2024-10-14 22h17.54.250816 +0530,
-50,x,46,0,184,0,,,,,572.9431301000295,,572.9302638000227,572.9431301000295,573.9436609999975,573.9436609999975,573.9436609999975,573.9436609999975,573.9436609999975,574.9432341000065,574.9432341000065,576.0951687999768,x,1,1.140226799994707,None,,,,,,,,,,,,,,,066450,001,2024-10-14_22h17.51.370,motor sequence,2024.1.5,None,2024-10-14 22h17.54.250816 +0530,
150,v,46,1,185,1,,,,,576.1103496000287,,576.0972448000102,576.1103496000287,577.1103671999881,577.1103671999881,577.1103671999881,577.1103671999881,577.1103671999881,578.110528899997,578.110528899997,578.3950564999832,v,1,0.27581319998716936,None,,,,,,,,,,,,,,,066450,001,2024-10-14_22h17.51.370,motor sequence,2024.1.5,None,2024-10-14 22h17.54.250816 +0530,
50,c,46,2,186,2,,,,,578.409765999997,,578.3970335000195,578.409765999997,579.4107505999855,579.4107505999855,579.4107505999855,579.4107505999855,579.4107505999855,580.4103205000283,580.4103205000283,580.7117930999957,c,1,0.2915777999442071,None,,,,,,,,,,,,,,,066450,001,2024-10-14_22h17.51.370,motor sequence,2024.1.5,None,2024-10-14 22h17.54.250816 +0530,
-150,z,46,3,187,3,,,,,580.7265076999902,,580.7136492999853,580.7265076999902,581.7276109000086,581.7276109000086,581.7276109000086,581.7276109000086,581.7276109000086,582.7268464000081,582.7268464000081,584.4961713000084,z,1,1.76449179998599,None,,,,,,,,,,,,,,,066450,001,2024-10-14_22h17.51.370,motor sequence,2024.1.5,None,2024-10-14 22h17.54.250816 +0530,
-50,x,47,0,188,0,,,,,584.510012099985,,584.4982224000269,584.510012099985,585.5102438000031,585.5102438000031,585.5102438000031,585.5102438000031,585.5102438000031,586.5097858000081,586.5097858000081,588.7960514000151,x,1,2.284196900029201,None,,,,,,,,,,,,,,,066450,001,2024-10-14_22h17.51.370,motor sequence,2024.1.5,None,2024-10-14 22h17.54.250816 +0530,
150,v,47,1,189,1,,,,,588.8097837999812,,588.7980921000126,588.8097837999812,589.8103195999865,589.8103195999865,589.8103195999865,589.8103195999865,589.8103195999865,590.8104540000204,590.8104540000204,593.0961889000027,v,1,2.2709894999861717,None,,,,,,,,,,,,,,,066450,001,2024-10-14_22h17.51.370,motor sequence,2024.1.5,None,2024-10-14 22h17.54.250816 +0530,
50,c,47,2,190,2,,,,,593.1110123000108,,593.0979788000113,593.1110123000108,594.1108348999987,594.1108348999987,594.1108348999987,594.1108348999987,594.1108348999987,595.1098759000306,595.1098759000306,596.161717800016,c,1,1.0416119000292383,None,,,,,,,,,,,,,,,066450,001,2024-10-14_22h17.51.370,motor sequence,2024.1.5,None,2024-10-14 22h17.54.250816 +0530,
-150,z,47,3,191,3,,,,,596.1765128999832,,596.1635717999889,596.1765128999832,597.177298500028,597.177298500028,597.177298500028,597.177298500028,597.177298500028,598.1772115000058,598.1772115000058,599.9122905000113,z,1,1.7321614000247791,None,,,,,,,,,,,,,,,066450,001,2024-10-14_22h17.51.370,motor sequence,2024.1.5,None,2024-10-14 22h17.54.250816 +0530,
-50,x,48,0,192,0,,,,,599.9266022000229,,599.9141859000083,599.9266022000229,600.9274946000078,600.9274946000078,600.9274946000078,600.9274946000078,600.9274946000078,601.926713199995,601.926713199995,602.812095500005,x,1,0.8795956999529153,None,,,,,,,,,,,,,,,066450,001,2024-10-14_22h17.51.370,motor sequence,2024.1.5,None,2024-10-14 22h17.54.250816 +0530,
150,v,48,1,193,1,,,,,602.826808599988,,602.8140779000241,602.826808599988,603.8270897999755,603.8270897999755,603.8270897999755,603.8270897999755,603.8270897999755,604.8267144000274,604.8267144000274,606.1284639000078,v,1,1.2870600000023842,None,,,,,,,,,,,,,,,066450,001,2024-10-14_22h17.51.370,motor sequence,2024.1.5,None,2024-10-14 22h17.54.250816 +0530,
50,c,48,2,194,2,,,,,606.1433329000138,,606.1305098999874,606.1433329000138,607.1438132000039,607.1438132000039,607.1438132000039,607.1438132000039,607.1438132000039,608.143370100006,608.143370100006,608.5974484999897,c,1,0.4490129000041634,None,,,,,,,,,,,,,,,066450,001,2024-10-14_22h17.51.370,motor sequence,2024.1.5,None,2024-10-14 22h17.54.250816 +0530,
-150,z,48,3,195,3,,,,,608.6104713000241,,608.599546500016,608.6104713000241,609.610501600022,609.610501600022,609.610501600022,609.610501600022,609.610501600022,610.6093240000191,610.6093240000191,611.24570520001,z,1,0.6220117000048049,None,,,,,,,,,,,,,,,066450,001,2024-10-14_22h17.51.370,motor sequence,2024.1.5,None,2024-10-14 22h17.54.250816 +0530,
-50,x,49,0,196,0,,,,,611.2598270000308,,611.2478524000035,611.2598270000308,612.2607235999894,612.2607235999894,612.2607235999894,612.2607235999894,612.2607235999894,613.2599630000186,613.2599630000186,613.7788967000088,x,1,0.5031602999661118,None,,,,,,,,,,,,,,,066450,001,2024-10-14_22h17.51.370,motor sequence,2024.1.5,None,2024-10-14 22h17.54.250816 +0530,
150,v,49,1,197,1,,,,,613.7945257999818,,613.7807886999799,613.7945257999818,614.7940707000089,614.7940707000089,614.7940707000089,614.7940707000089,614.7940707000089,615.7932375000091,615.7932375000091,617.0958982000011,v,1,1.293798999977298,None,,,,,,,,,,,,,,,066450,001,2024-10-14_22h17.51.370,motor sequence,2024.1.5,None,2024-10-14 22h17.54.250816 +0530,
50,c,49,2,198,2,,,,,617.1099480999983,,617.0981274999795,617.1099480999983,618.1111047000159,618.1111047000159,618.1111047000159,618.1111047000159,618.1111047000159,619.1098151999759,619.1098151999759,619.4963559000171,c,1,0.38334510003915057,None,,,,,,,,,,,,,,,066450,001,2024-10-14_22h17.51.370,motor sequence,2024.1.5,None,2024-10-14 22h17.54.250816 +0530,
-150,z,49,3,199,3,,,,,619.5099893999868,,619.498341700004,619.5099893999868,620.5107601999771,620.5107601999771,620.5107601999771,620.5107601999771,620.5107601999771,621.5105661000125,621.5105661000125,622.0786159000127,z,1,0.5529052000492811,None,,,,,,,,,,,,,,,066450,001,2024-10-14_22h17.51.370,motor sequence,2024.1.5,None,2024-10-14 22h17.54.250816 +0530,
50,c,,,,,0,0,0,2,622.1084303000243,,,,,,,,,,,,,,,,622.0983077000128,622.1084303000243,623.1089899999788,623.1089899999788,623.1089899999788,623.1089899999788,623.1273579000263,624.0931857000105,624.0931857000105,626.0616446000058,c,1,1.9525369000039063,None,066450,001,2024-10-14_22h17.51.370,motor sequence,2024.1.5,None,2024-10-14 22h17.54.250816 +0530,
-50,x,,,,,0,1,1,0,626.07656950003,,,,,,,,,,,,,,,,626.0645262000035,626.07656950003,627.0772270999732,627.0772270999732,627.0772270999732,627.0772270999732,627.0772270999732,628.0772362999851,628.0772362999851,628.5454347999766,x,1,0.46241639996878803,None,066450,001,2024-10-14_22h17.51.370,motor sequence,2024.1.5,None,2024-10-14 22h17.54.250816 +0530,
-150,z,,,,,0,2,2,3,628.5602193999803,,,,,,,,,,,,,,,,628.5472918999731,628.5602193999803,629.561067099974,629.561067099974,629.561067099974,629.561067099974,629.561067099974,630.5598908999818,630.5598908999818,631.6784848999814,z,1,1.102935399976559,None,066450,001,2024-10-14_22h17.51.370,motor sequence,2024.1.5,None,2024-10-14 22h17.54.250816 +0530,
150,v,,,,,0,3,3,1,631.6932166999904,,,,,,,,,,,,,,,,631.6808400999871,631.6932166999904,632.6943235999788,632.6943235999788,632.6943235999788,632.6943235999788,632.6943235999788,633.6934892000281,633.6934892000281,635.9952567000291,v,1,2.289486500027124,None,066450,001,2024-10-14_22h17.51.370,motor sequence,2024.1.5,None,2024-10-14 22h17.54.250816 +0530,
-150,z,,,,,1,0,4,3,636.0100581999868,,,,,,,,,,,,,,,,635.9971523000277,636.0100581999868,637.0106275000144,637.0106275000144,637.0106275000144,637.0106275000144,637.0106275000144,638.0100006000139,638.0100006000139,639.0785073000006,z,1,1.0595374000258744,None,066450,001,2024-10-14_22h17.51.370,motor sequence,2024.1.5,None,2024-10-14 22h17.54.250816 +0530,
50,c,,,,,1,1,5,2,639.0938188,,,,,,,,,,,,,,,,639.0805843999842,639.0938188,640.0951300000306,640.0951300000306,640.0951300000306,640.0951300000306,640.0951300000306,641.0939815000165,641.0939815000165,641.8768722999957,c,1,0.7803339000092819,None,066450,001,2024-10-14_22h17.51.370,motor sequence,2024.1.5,None,2024-10-14 22h17.54.250816 +0530,
-50,x,,,,,1,2,6,0,641.8920143999858,,,,,,,,,,,,,,,,641.878214300028,641.8920143999858,642.8776192999794,642.8776192999794,642.8776192999794,642.8776192999794,642.894160100026,643.8768455000245,643.8768455000245,644.9118767000036,x,1,1.0211080000153743,None,066450,001,2024-10-14_22h17.51.370,motor sequence,2024.1.5,None,2024-10-14 22h17.54.250816 +0530,
-50,x,,,,,1,3,7,0,644.9266341999755,,,,,,,,,,,,,,,,644.9136205000104,644.9266341999755,645.928225599986,645.928225599986,645.928225599986,645.928225599986,645.928225599986,646.9271793999942,646.9271793999942,648.2285076000262,x,1,1.291651300038211,None,066450,001,2024-10-14_22h17.51.370,motor sequence,2024.1.5,None,2024-10-14 22h17.54.250816 +0530,
-150,z,,,,,2,0,8,3,648.2433973000152,,,,,,,,,,,,,,,,648.2302155999932,648.2433973000152,649.2441167000216,649.2441167000216,649.2441167000216,649.2441167000216,649.2441167000216,650.2434237999842,650.2434237999842,650.9786093999865,z,1,0.7231956000323407,None,066450,001,2024-10-14_22h17.51.370,motor sequence,2024.1.5,None,2024-10-14 22h17.54.250816 +0530,
150,v,,,,,2,1,9,1,650.9933879000018,,,,,,,,,,,,,,,,650.9805434999871,650.9933879000018,651.9940310000093,651.9940310000093,651.9940310000093,651.9940310000093,651.9940310000093,652.9936247000005,652.9936247000005,654.0787961999886,v,1,1.0725683000055142,None,066450,001,2024-10-14_22h17.51.370,motor sequence,2024.1.5,None,2024-10-14 22h17.54.250816 +0530,
-50,x,,,,,2,2,10,0,654.0933914000052,,,,,,,,,,,,,,,,654.0808716000174,654.0933914000052,655.094195600017,655.094195600017,655.094195600017,655.094195600017,655.094195600017,656.0936126000015,656.0936126000015,657.1284724000143,x,1,1.017578799976036,None,066450,001,2024-10-14_22h17.51.370,motor sequence,2024.1.5,None,2024-10-14 22h17.54.250816 +0530,
-150,z,,,,,2,3,11,3,657.1435584999854,,,,,,,,,,,,,,,,657.1304852999747,657.1435584999854,658.1442800000077,658.1442800000077,658.1442800000077,658.1442800000077,658.1442800000077,659.1439859999809,659.1439859999809,659.8118202000041,z,1,0.6508701000129804,None,066450,001,2024-10-14_22h17.51.370,motor sequence,2024.1.5,None,2024-10-14 22h17.54.250816 +0530,
50,c,,,,,3,0,12,2,659.8268857999938,,,,,,,,,,,,,,,,659.813912099984,659.8268857999938,660.8279631999903,660.8279631999903,660.8279631999903,660.8279631999903,660.8279631999903,661.827269100002,661.827269100002,662.6286256000167,c,1,0.7898773999768309,None,066450,001,2024-10-14_22h17.51.370,motor sequence,2024.1.5,None,2024-10-14 22h17.54.250816 +0530,
-50,x,,,,,3,1,13,0,662.6435674999957,,,,,,,,,,,,,,,,662.6307216000278,662.6435674999957,663.6444100000081,663.6444100000081,663.6444100000081,663.6444100000081,663.6444100000081,664.6440405999892,664.6440405999892,665.4120372000034,x,1,0.7546698999940418,None,066450,001,2024-10-14_22h17.51.370,motor sequence,2024.1.5,None,2024-10-14 22h17.54.250816 +0530,
-50,x,,,,,3,2,14,0,665.4275167000014,,,,,,,,,,,,,,,,665.4140614999924,665.4275167000014,666.4274835999822,666.4274835999822,666.4274835999822,666.4274835999822,666.4274835999822,667.4271083999774,667.4271083999774,668.1618492000271,x,1,0.7211429000017233,None,066450,001,2024-10-14_22h17.51.370,motor sequence,2024.1.5,None,2024-10-14 22h17.54.250816 +0530,
-50,x,,,,,3,3,15,0,668.1767592999968,,,,,,,,,,,,,,,,668.1640462999931,668.1767592999968,669.1773753999732,669.1773753999732,669.1773753999732,669.1773753999732,669.1773753999732,670.1769081000239,670.1769081000239,670.6292039999971,x,1,0.443487600015942,None,066450,001,2024-10-14_22h17.51.370,motor sequence,2024.1.5,None,2024-10-14 22h17.54.250816 +0530,
-150,z,,,,,4,0,16,3,670.643659399997,,,,,,,,,,,,,,,,670.6312766000046,670.643659399997,671.6443742000265,671.6443742000265,671.6443742000265,671.6443742000265,671.6443742000265,672.6434402000159,672.6434402000159,673.2630582000129,z,1,0.6171247999882326,None,066450,001,2024-10-14_22h17.51.370,motor sequence,2024.1.5,None,2024-10-14 22h17.54.250816 +0530,
150,v,,,,,4,1,17,1,673.2767958000186,,,,,,,,,,,,,,,,673.2650813999935,673.2767958000186,674.2780054999748,674.2780054999748,674.2780054999748,674.2780054999748,674.2780054999748,675.276950999978,675.276950999978,676.4461118999752,v,1,1.1655857000150718,None,066450,001,2024-10-14_22h17.51.370,motor sequence,2024.1.5,None,2024-10-14 22h17.54.250816 +0530,
150,v,,,,,4,2,18,1,676.4601890000049,,,,,,,,,,,,,,,,676.4481182000018,676.4601890000049,677.4608622000087,677.4608622000087,677.4608622000087,677.4608622000087,677.4608622000087,678.4606120000244,678.4606120000244,679.2458176999935,v,1,0.7749993999605067,None,066450,001,2024-10-14_22h17.51.370,motor sequence,2024.1.5,None,2024-10-14 22h17.54.250816 +0530,
50,c,,,,,4,3,19,2,679.2609826999833,,,,,,,,,,,,,,,,679.24789410003,679.2609826999833,680.2611228000023,680.2611228000023,680.2611228000023,680.2611228000023,680.2611228000023,681.2603992000222,681.2603992000222,681.9958264000015,c,1,0.7179222000413574,None,066450,001,2024-10-14_22h17.51.370,motor sequence,2024.1.5,None,2024-10-14 22h17.54.250816 +0530,
-150,z,,,,,5,0,20,3,682.0101541000186,,,,,,,,,,,,,,,,681.9976695000078,682.0101541000186,683.011363699974,683.011363699974,683.011363699974,683.011363699974,683.011363699974,684.0102195999934,684.0102195999934,685.1616824999801,z,1,1.1364184999838471,None,066450,001,2024-10-14_22h17.51.370,motor sequence,2024.1.5,None,2024-10-14 22h17.54.250816 +0530,
50,c,,,,,5,1,21,2,685.1768606000114,,,,,,,,,,,,,,,,685.1637153999764,685.1768606000114,686.177742299973,686.177742299973,686.177742299973,686.177742299973,686.177742299973,687.1768669000012,687.1768669000012,687.9959115000092,c,1,0.8154841999639757,None,066450,001,2024-10-14_22h17.51.370,motor sequence,2024.1.5,None,2024-10-14 22h17.54.250816 +0530,
50,c,,,,,5,2,22,2,688.0101502999896,,,,,,,,,,,,,,,,687.9977760000038,688.0101502999896,689.0111929000122,689.0111929000122,689.0111929000122,689.0111929000122,689.0111929000122,690.0102297000121,690.0102297000121,690.8969037000206,c,1,0.8840253000380471,None,066450,001,2024-10-14_22h17.51.370,motor sequence,2024.1.5,None,2024-10-14 22h17.54.250816 +0530,
50,c,,,,,5,3,23,2,690.9098476999789,,,,,,,,,,,,,,,,690.8985443999991,690.9098476999789,691.9101951000048,691.9101951000048,691.9101951000048,691.9101951000048,691.9101951000048,692.9107115999795,692.9107115999795,693.4454918000265,c,1,0.5239094999851659,None,066450,001,2024-10-14_22h17.51.370,motor sequence,2024.1.5,None,2024-10-14 22h17.54.250816 +0530,
-50,x,,,,,6,0,24,0,693.461922699993,,,,,,,,,,,,,,,,693.447620299994,693.461922699993,694.4613032999914,694.4613032999914,694.4613032999914,694.4613032999914,694.4613032999914,695.4611551000271,695.4611551000271,696.1452609000262,x,1,0.6675225000362843,None,066450,001,2024-10-14_22h17.51.370,motor sequence,2024.1.5,None,2024-10-14 22h17.54.250816 +0530,
50,c,,,,,6,1,25,2,696.1598202000023,,,,,,,,,,,,,,,,696.1471437999862,696.1598202000023,697.1590054000262,697.1590054000262,697.1590054000262,697.1590054000262,697.1590054000262,698.1605554000125,698.1605554000125,698.8932279000292,c,1,0.7232606000034139,None,066450,001,2024-10-14_22h17.51.370,motor sequence,2024.1.5,None,2024-10-14 22h17.54.250816 +0530,
-150,z,,,,,6,2,26,3,698.9093003000016,,,,,,,,,,,,,,,,698.8939662000048,698.9093003000016,699.8941440000199,699.8941440000199,699.8941440000199,699.8941440000199,699.9109833000111,700.8942095999955,700.8942095999955,701.512119800027,z,1,0.6110495000029914,None,066450,001,2024-10-14_22h17.51.370,motor sequence,2024.1.5,None,2024-10-14 22h17.54.250816 +0530,
-50,x,,,,,6,3,27,0,701.5269001999986,,,,,,,,,,,,,,,,701.5139975000056,701.5269001999986,702.5275992000243,702.5275992000243,702.5275992000243,702.5275992000243,702.5275992000243,703.5269641000195,703.5269641000195,704.1132858999772,x,1,0.5832532999920659,None,066450,001,2024-10-14_22h17.51.370,motor sequence,2024.1.5,None,2024-10-14 22h17.54.250816 +0530,
50,c,,,,,7,0,28,2,704.128078299982,,,,,,,,,,,,,,,,704.1151888999739,704.128078299982,705.1280013999785,705.1280013999785,705.1280013999785,705.1280013999785,705.1280013999785,706.1269082999788,706.1269082999788,706.7773119999911,c,1,0.636639499978628,None,066450,001,2024-10-14_22h17.51.370,motor sequence,2024.1.5,None,2024-10-14 22h17.54.250816 +0530,
-50,x,,,,,7,1,29,0,706.7928536999971,,,,,,,,,,,,,,,,706.7784420999815,706.7928536999971,707.7776765999733,707.7776765999733,707.7776765999733,707.7776765999733,707.7943142000004,708.793559600017,708.793559600017,709.6784602000262,x,1,0.8749043999705464,None,066450,001,2024-10-14_22h17.51.370,motor sequence,2024.1.5,None,2024-10-14 22h17.54.250816 +0530,
50,c,,,,,7,2,30,2,709.6936977999867,,,,,,,,,,,,,,,,709.68028770003,709.6936977999867,710.6941137000103,710.6941137000103,710.6941137000103,710.6941137000103,710.6941137000103,711.6935277000302,711.6935277000302,712.6788363999804,c,1,0.9779058000422083,None,066450,001,2024-10-14_22h17.51.370,motor sequence,2024.1.5,None,2024-10-14 22h17.54.250816 +0530,
150,v,,,,,7,3,31,1,712.6937643000274,,,,,,,,,,,,,,,,712.6807577,712.6937643000274,713.6946884000208,713.6946884000208,713.6946884000208,713.6946884000208,713.6946884000208,714.6936342000263,714.6936342000263,715.6289033999783,v,1,0.9283600999624468,None,066450,001,2024-10-14_22h17.51.370,motor sequence,2024.1.5,None,2024-10-14 22h17.54.250816 +0530,
50,c,,,,,8,0,32,2,715.6437354999944,,,,,,,,,,,,,,,,715.630910900014,715.6437354999944,716.6442112000077,716.6442112000077,716.6442112000077,716.6442112000077,716.6442112000077,717.6436647999799,717.6436647999799,718.9624696000246,c,1,1.311669200018514,None,066450,001,2024-10-14_22h17.51.370,motor sequence,2024.1.5,None,2024-10-14 22h17.54.250816 +0530,
-50,x,,,,,8,1,33,0,718.976877100009,,,,,,,,,,,,,,,,718.9643108000164,718.976877100009,719.9775590000208,719.9775590000208,719.9775590000208,719.9775590000208,719.9775590000208,720.9776060000295,720.9776060000295,721.6289600000018,x,1,0.6386027000262402,None,066450,001,2024-10-14_22h17.51.370,motor sequence,2024.1.5,None,2024-10-14 22h17.54.250816 +0530,
50,c,,,,,8,2,34,2,721.643624600023,,,,,,,,,,,,,,,,721.6310031000176,721.643624600023,722.6446932000108,722.6446932000108,722.6446932000108,722.6446932000108,722.6446932000108,723.6435855000163,723.6435855000163,728.7458757000277,c,1,5.095827899989672,None,066450,001,2024-10-14_22h17.51.370,motor sequence,2024.1.5,None,2024-10-14 22h17.54.250816 +0530,
150,v,,,,,8,3,35,1,728.760622199974,,,,,,,,,,,,,,,,728.7476915000007,728.760622199974,729.7611382000032,729.7611382000032,729.7611382000032,729.7611382000032,729.7611382000032,730.7602825000067,730.7602825000067,732.0788519000052,v,1,1.3015123000368476,None,066450,001,2024-10-14_22h17.51.370,motor sequence,2024.1.5,None,2024-10-14 22h17.54.250816 +0530,
-150,z,,,,,9,0,36,3,732.0936849000282,,,,,,,,,,,,,,,,732.0806111000129,732.0936849000282,733.0941515000304,733.0941515000304,733.0941515000304,733.0941515000304,733.0941515000304,734.0937340999953,734.0937340999953,741.6957300999784,z,1,7.584756599972025,None,066450,001,2024-10-14_22h17.51.370,motor sequence,2024.1.5,None,2024-10-14 22h17.54.250816 +0530,
-150,z,,,,,9,1,37,3,741.7106645000167,,,,,,,,,,,,,,,,741.6979455000255,741.7106645000167,742.7108989999979,742.7108989999979,742.7108989999979,742.7108989999979,742.7108989999979,743.7107975999825,743.7107975999825,744.2787848000298,z,1,0.5612367000430822,None,066450,001,2024-10-14_22h17.51.370,motor sequence,2024.1.5,None,2024-10-14 22h17.54.250816 +0530,
50,c,,,,,9,2,38,2,744.2939091000007,,,,,,,,,,,,,,,,744.2806947000208,744.2939091000007,745.2946733999997,745.2946733999997,745.2946733999997,745.2946733999997,745.2946733999997,746.2950788000016,746.2950788000016,747.1952791999793,c,1,0.8837703000172041,None,066450,001,2024-10-14_22h17.51.370,motor sequence,2024.1.5,None,2024-10-14 22h17.54.250816 +0530,
-50,x,,,,,9,3,39,0,747.2104515000246,,,,,,,,,,,,,,,,747.197105499974,747.2104515000246,748.2110025000293,748.2110025000293,748.2110025000293,748.2110025000293,748.2110025000293,749.21032990003,749.21032990003,769.6462996000191,x,1,20.43285649997415,None,066450,001,2024-10-14_22h17.51.370,motor sequence,2024.1.5,None,2024-10-14 22h17.54.250816 +0530,
-50,x,,,,,10,0,40,0,769.6603679999826,,,,,,,,,,,,,,,,769.6479992999812,769.6603679999826,770.6612339999992,770.6612339999992,770.6612339999992,770.6612339999992,770.6612339999992,771.6605736999772,771.6605736999772,772.4616885000141,x,1,0.7845105999731459,None,066450,001,2024-10-14_22h17.51.370,motor sequence,2024.1.5,None,2024-10-14 22h17.54.250816 +0530,
-150,z,,,,,10,1,41,3,772.4771470000269,,,,,,,,,,,,,,,,772.4635185999796,772.4771470000269,773.4777876000153,773.4777876000153,773.4777876000153,773.4777876000153,773.4777876000153,774.4778831999865,774.4778831999865,775.2455849000253,z,1,0.7590683000162244,None,066450,001,2024-10-14_22h17.51.370,motor sequence,2024.1.5,None,2024-10-14 22h17.54.250816 +0530,
-50,x,,,,,10,2,42,0,775.26103470003,,,,,,,,,,,,,,,,775.2474600999849,775.26103470003,776.2612772000139,776.2612772000139,776.2612772000139,776.2612772000139,776.2612772000139,777.260638399981,777.260638399981,777.9457154999836,x,1,0.6675027999444865,None,066450,001,2024-10-14_22h17.51.370,motor sequence,2024.1.5,None,2024-10-14 22h17.54.250816 +0530,
50,c,,,,,10,3,43,2,777.9608071999974,,,,,,,,,,,,,,,,777.9476420999854,777.9608071999974,778.9617716000066,778.9617716000066,778.9617716000066,778.9617716000066,778.9617716000066,779.9607276999741,779.9607276999741,780.8455279999762,c,1,0.8687168000033125,None,066450,001,2024-10-14_22h17.51.370,motor sequence,2024.1.5,None,2024-10-14 22h17.54.250816 +0530,
150,v,,,,,11,0,44,1,780.8606528000091,,,,,,,,,,,,,,,,780.8476463999832,780.8606528000091,781.8615226999973,781.8615226999973,781.8615226999973,781.8615226999973,781.8615226999973,782.8609638999915,782.8609638999915,810.0795523999841,v,1,27.21375589998206,None,066450,001,2024-10-14_22h17.51.370,motor sequence,2024.1.5,None,2024-10-14 22h17.54.250816 +0530,
50,c,,,,,11,1,45,2,810.0940792000038,,,,,,,,,,,,,,,,810.0814969000057,810.0940792000038,811.0945658999844,811.0945658999844,811.0945658999844,811.0945658999844,811.0945658999844,812.0941904999781,812.0941904999781,813.3121615999844,c,1,1.2009904000442475,None,066450,001,2024-10-14_22h17.51.370,motor sequence,2024.1.5,None,2024-10-14 22h17.54.250816 +0530,
50,c,,,,,11,2,46,2,813.3272396000102,,,,,,,,,,,,,,,,813.3140451000072,813.3272396000102,814.3114604000002,814.3114604000002,814.3114604000002,814.3114604000002,814.3282111000153,815.3272245000117,815.3272245000117,815.8958017000114,c,1,0.5577271000365727,None,066450,001,2024-10-14_22h17.51.370,motor sequence,2024.1.5,None,2024-10-14 22h17.54.250816 +0530,
50,c,,,,,11,3,47,2,815.910986199975,,,,,,,,,,,,,,,,815.8978477999917,815.910986199975,816.9117832999909,816.9117832999909,816.9117832999909,816.9117832999909,816.9117832999909,817.911300399981,817.911300399981,818.3121179000009,c,1,0.39094219997059554,None,066450,001,2024-10-14_22h17.51.370,motor sequence,2024.1.5,None,2024-10-14 22h17.54.250816 +0530,
-50,x,,,,,12,0,48,0,818.3274688000092,,,,,,,,,,,,,,,,818.3140170000261,818.3274688000092,819.3280781999929,819.3280781999929,819.3280781999929,819.3280781999929,819.3280781999929,820.327520699997,820.327520699997,820.9461551000131,x,1,0.6101002999930643,None,066450,001,2024-10-14_22h17.51.370,motor sequence,2024.1.5,None,2024-10-14 22h17.54.250816 +0530,
150,v,,,,,12,1,49,1,820.9615376000293,,,,,,,,,,,,,,,,820.9484773000004,820.9615376000293,821.9613962000003,821.9613962000003,821.9613962000003,821.9613962000003,821.9613962000003,822.9611782000284,822.9611782000284,824.7965255000163,v,1,1.8330541999894194,None,066450,001,2024-10-14_22h17.51.370,motor sequence,2024.1.5,None,2024-10-14 22h17.54.250816 +0530,
-150,z,,,,,12,2,50,3,824.8105798999895,,,,,,,,,,,,,,,,824.7986580000143,824.8105798999895,825.8112114000251,825.8112114000251,825.8112114000251,825.8112114000251,825.8112114000251,826.8107048000093,826.8107048000093,827.8130400999798,z,1,0.9852676999871619,None,066450,001,2024-10-14_22h17.51.370,motor sequence,2024.1.5,None,2024-10-14 22h17.54.250816 +0530,
-50,x,,,,,12,3,51,0,827.8274796999758,,,,,,,,,,,,,,,,827.81506980001,827.8274796999758,828.8279297000263,828.8279297000263,828.8279297000263,828.8279297000263,828.8279297000263,829.8278058000142,829.8278058000142,831.5624705000082,x,1,1.723609699984081,None,066450,001,2024-10-14_22h17.51.370,motor sequence,2024.1.5,None,2024-10-14 22h17.54.250816 +0530,
-50,x,,,,,13,0,52,0,831.5772986999946,,,,,,,,,,,,,,,,831.5646000999841,831.5772986999946,832.5778459000285,832.5778459000285,832.5778459000285,832.5778459000285,832.5778459000285,833.5928021,833.5928021,835.7295529000112,x,1,2.1254251000355,None,066450,001,2024-10-14_22h17.51.370,motor sequence,2024.1.5,None,2024-10-14 22h17.54.250816 +0530,
150,v,,,,,13,1,53,1,835.7448901999742,,,,,,,,,,,,,,,,835.7312678000308,835.7448901999742,836.7447369000292,836.7447369000292,836.7447369000292,836.7447369000292,836.7447369000292,837.7444779999787,837.7444779999787,841.8793332999921,v,1,4.119140599970706,None,066450,001,2024-10-14_22h17.51.370,motor sequence,2024.1.5,None,2024-10-14 22h17.54.250816 +0530,
-150,z,,,,,13,2,54,3,841.8940755000222,,,,,,,,,,,,,,,,841.8813365999958,841.8940755000222,842.8948802999803,842.8948802999803,842.8948802999803,842.8948802999803,842.8948802999803,843.8947457000031,843.8947457000031,845.2133974999888,z,1,1.3115645999787375,None,066450,001,2024-10-14_22h17.51.370,motor sequence,2024.1.5,None,2024-10-14 22h17.54.250816 +0530,
-150,z,,,,,13,3,55,3,845.2279778000084,,,,,,,,,,,,,,,,845.2150813000044,845.2279778000084,846.2278274000273,846.2278274000273,846.2278274000273,846.2278274000273,846.2278274000273,847.2281293999986,847.2281293999986,848.9124573000008,z,1,1.6681705000228249,None,066450,001,2024-10-14_22h17.51.370,motor sequence,2024.1.5,None,2024-10-14 22h17.54.250816 +0530,
50,c,,,,,14,0,56,2,848.9272765999776,,,,,,,,,,,,,,,,848.9144241000176,848.9272765999776,849.9281727999914,849.9281727999914,849.9281727999914,849.9281727999914,849.9281727999914,850.9277638000203,850.9277638000203,851.8123151999898,c,1,0.8740349999861792,None,066450,001,2024-10-14_22h17.51.370,motor sequence,2024.1.5,None,2024-10-14 22h17.54.250816 +0530,
150,v,,,,,14,1,57,1,851.8274861000245,,,,,,,,,,,,,,,,851.814128900005,851.8274861000245,852.8279879000038,852.8279879000038,852.8279879000038,852.8279879000038,852.8279879000038,853.8272811999777,853.8272811999777,855.679137900006,v,1,1.8359486000263132,None,066450,001,2024-10-14_22h17.51.370,motor sequence,2024.1.5,None,2024-10-14 22h17.54.250816 +0530,
50,c,,,,,14,2,58,2,855.69427550002,,,,,,,,,,,,,,,,855.6810668000253,855.69427550002,856.6945469999919,856.6945469999919,856.6945469999919,856.6945469999919,856.6945469999919,857.6940263999859,857.6940263999859,858.3959308000049,c,1,0.6948965000337921,None,066450,001,2024-10-14_22h17.51.370,motor sequence,2024.1.5,None,2024-10-14 22h17.54.250816 +0530,
150,v,,,,,14,3,59,1,858.4107614000095,,,,,,,,,,,,,,,,858.39788340003,858.4107614000095,859.4110184999881,859.4110184999881,859.4110184999881,859.4110184999881,859.4110184999881,860.4106826999923,860.4106826999923,861.3290483999881,v,1,0.9157895999960601,None,066450,001,2024-10-14_22h17.51.370,motor sequence,2024.1.5,None,2024-10-14 22h17.54.250816 +0530,
150,v,,,,,15,0,60,1,861.3440980000305,,,,,,,,,,,,,,,,861.3308343000244,861.3440980000305,862.3448232000228,862.3448232000228,862.3448232000228,862.3448232000228,862.3448232000228,863.3446557000279,863.3446557000279,863.9131567000295,v,1,0.565687499998603,None,066450,001,2024-10-14_22h17.51.370,motor sequence,2024.1.5,None,2024-10-14 22h17.54.250816 +0530,
-150,z,,,,,15,1,61,3,863.927615499997,,,,,,,,,,,,,,,,863.9151006999891,863.927615499997,864.9280884999898,864.9280884999898,864.9280884999898,864.9280884999898,864.9280884999898,865.9315107000293,865.9315107000293,866.7293363999925,z,1,0.7875931999878958,None,066450,001,2024-10-14_22h17.51.370,motor sequence,2024.1.5,None,2024-10-14 22h17.54.250816 +0530,
-50,x,,,,,15,2,62,0,866.7440716000274,,,,,,,,,,,,,,,,866.7311260999995,866.7440716000274,867.7448115000152,867.7448115000152,867.7448115000152,867.7448115000152,867.7448115000152,868.7441652999842,868.7441652999842,870.3295381999924,x,1,1.5785551000153646,None,066450,001,2024-10-14_22h17.51.370,motor sequence,2024.1.5,None,2024-10-14 22h17.54.250816 +0530,
50,c,,,,,15,3,63,2,870.3445633000229,,,,,,,,,,,,,,,,870.331357499992,870.3445633000229,871.3452072999789,871.3452072999789,871.3452072999789,871.3452072999789,871.3452072999789,872.3444941000198,872.3444941000198,872.7126713999896,c,1,0.35077430005185306,None,066450,001,2024-10-14_22h17.51.370,motor sequence,2024.1.5,None,2024-10-14 22h17.54.250816 +0530,
50,c,,,,,16,0,64,2,872.7276756999781,,,,,,,,,,,,,,,,872.7143916999921,872.7276756999781,873.7282690000138,873.7282690000138,873.7282690000138,873.7282690000138,873.7282690000138,874.7280589999864,874.7280589999864,875.1626545999898,c,1,0.4284933000453748,None,066450,001,2024-10-14_22h17.51.370,motor sequence,2024.1.5,None,2024-10-14 22h17.54.250816 +0530,
-50,x,,,,,16,1,65,0,875.17730879999,,,,,,,,,,,,,,,,875.1643172000186,875.17730879999,876.178527800017,876.178527800017,876.178527800017,876.178527800017,876.178527800017,877.1774922999903,877.1774922999903,877.946237600001,x,1,0.7636295999982394,None,066450,001,2024-10-14_22h17.51.370,motor sequence,2024.1.5,None,2024-10-14 22h17.54.250816 +0530,
150,v,,,,,16,2,66,1,877.96083549998,,,,,,,,,,,,,,,,877.9482083999901,877.96083549998,878.9621349999798,878.9621349999798,878.9621349999798,878.9621349999798,878.9621349999798,879.9612665000022,879.9612665000022,880.9794235000154,v,1,1.0119486999465153,None,066450,001,2024-10-14_22h17.51.370,motor sequence,2024.1.5,None,2024-10-14 22h17.54.250816 +0530,
-150,z,,,,,16,3,67,3,880.9940512999892,,,,,,,,,,,,,,,,880.981211300008,880.9940512999892,881.9945335999946,881.9945335999946,881.9945335999946,881.9945335999946,881.9945335999946,882.9946016999893,882.9946016999893,886.5135037000291,z,1,3.516013999993447,None,066450,001,2024-10-14_22h17.51.370,motor sequence,2024.1.5,None,2024-10-14 22h17.54.250816 +0530,
-150,z,,,,,17,0,68,3,886.5275327999843,,,,,,,,,,,,,,,,886.5154452000279,886.5275327999843,887.5469745000009,887.5469745000009,887.5469745000009,887.5469745000009,887.5469745000009,888.5277925999835,888.5277925999835,889.3107772999792,z,1,0.77669510000851,None,066450,001,2024-10-14_22h17.51.370,motor sequence,2024.1.5,None,2024-10-14 22h17.54.250816 +0530,
-150,z,,,,,17,1,69,3,889.3269441000302,,,,,,,,,,,,,,,,889.311632100027,889.3269441000302,890.311572799983,890.311572799983,890.311572799983,890.311572799983,890.3276673000073,891.3268941999995,891.3268941999995,892.3307327000075,z,1,0.9971709999954328,None,066450,001,2024-10-14_22h17.51.370,motor sequence,2024.1.5,None,2024-10-14 22h17.54.250816 +0530,
-150,z,,,,,17,2,70,3,892.3447816999978,,,,,,,,,,,,,,,,892.3329202000168,892.3447816999978,893.3449942999869,893.3449942999869,893.3449942999869,893.3449942999869,893.3449942999869,894.3450134000159,894.3450134000159,894.7626766000176,z,1,0.40396379999583587,None,066450,001,2024-10-14_22h17.51.370,motor sequence,2024.1.5,None,2024-10-14 22h17.54.250816 +0530,
-150,z,,,,,17,3,71,3,894.7774622000288,,,,,,,,,,,,,,,,894.7646115000243,894.7774622000288,895.7782317000092,895.7782317000092,895.7782317000092,895.7782317000092,895.7782317000092,896.7779695999925,896.7779695999925,900.1796368000214,z,1,3.391210499976296,None,066450,001,2024-10-14_22h17.51.370,motor sequence,2024.1.5,None,2024-10-14 22h17.54.250816 +0530,
-150,z,,,,,18,0,72,3,900.1942555999849,,,,,,,,,,,,,,,,900.1815925000119,900.1942555999849,901.1957468999899,901.1957468999899,901.1957468999899,901.1957468999899,901.1957468999899,902.1942664000089,902.1942664000089,902.5641438000021,z,1,0.36710189998848364,None,066450,001,2024-10-14_22h17.51.370,motor sequence,2024.1.5,None,2024-10-14 22h17.54.250816 +0530,
150,v,,,,,18,1,73,1,902.5776365000056,,,,,,,,,,,,,,,,902.5659500000183,902.5776365000056,903.5779226000304,903.5779226000304,903.5779226000304,903.5779226000304,903.5779226000304,904.5778612000286,904.5778612000286,907.0136315000127,v,1,2.424305099993944,None,066450,001,2024-10-14_22h17.51.370,motor sequence,2024.1.5,None,2024-10-14 22h17.54.250816 +0530,
